time,ax,ay,az,atotal
0.00893712043762207,-0.09,-0.02,-0.03,0.09
0.013486146926879883,-0.09,0.02,-0.15,0.17
0.023437023162841797,-0.01,0.01,-0.11,0.11
0.03328514099121094,0.02,-0.01,-0.03,0.03
0.043215274810791016,-0.03,-0.01,-0.03,0.04
0.053292274475097656,-0.05,0.0,-0.06,0.07
0.06457805633544922,-0.02,0.0,-0.08,0.08
0.09064102172851562,-0.01,0.0,-0.08,0.08
0.09135198593139648,-0.03,0.0,-0.05,0.05
0.09289216995239258,-0.02,-0.01,-0.04,0.04
0.10594415664672852,-0.01,-0.01,-0.05,0.05
0.11291217803955078,-0.02,0.0,-0.08,0.08
0.12276911735534668,-0.03,0.01,-0.08,0.08
0.13263607025146484,-0.03,0.0,-0.05,0.05
0.1428232192993164,-0.02,-0.01,-0.04,0.04
0.15264511108398438,-0.02,0.0,-0.07,0.07
0.16389131546020508,-0.02,0.0,-0.07,0.07
0.19384098052978516,-0.02,0.0,-0.07,0.07
0.19431400299072266,-0.03,0.0,-0.06,0.06
0.194594144821167,-0.03,0.0,-0.06,0.06
0.20215916633605957,-0.02,0.0,-0.06,0.06
0.21221017837524414,-0.03,0.0,-0.06,0.06
0.22205209732055664,-0.03,0.0,-0.06,0.06
0.23220419883728027,-0.02,0.0,-0.05,0.05
0.2421250343322754,-0.02,-0.01,-0.06,0.06
0.25203704833984375,-0.01,0.0,-0.08,0.08
0.2640652656555176,-0.03,-0.01,-0.06,0.06
0.29576611518859863,-0.03,0.0,-0.07,0.07
0.2961902618408203,-0.02,0.0,-0.06,0.06
0.2965421676635742,-0.02,0.0,-0.07,0.07
0.30156612396240234,-0.03,0.0,-0.07,0.07
0.31174516677856445,-0.02,0.0,-0.06,0.06
0.3215780258178711,-0.03,0.0,-0.06,0.06
0.3316349983215332,-0.03,0.0,-0.07,0.07
0.3415989875793457,-0.02,0.0,-0.07,0.07
0.35123610496520996,-0.02,0.0,-0.07,0.07
0.3634762763977051,-0.02,0.0,-0.06,0.06
0.39449310302734375,-0.03,0.0,-0.06,0.06
0.3948831558227539,-0.03,0.0,-0.07,0.07
0.3952140808105469,-0.02,0.0,-0.07,0.07
0.4014883041381836,-0.02,0.0,-0.07,0.07
0.41119813919067383,-0.03,0.0,-0.07,0.07
0.4210810661315918,-0.02,0.0,-0.06,0.06
0.43089818954467773,-0.02,0.0,-0.06,0.06
0.4409961700439453,-0.02,0.0,-0.07,0.07
0.4508821964263916,-0.03,0.0,-0.07,0.07
0.46282100677490234,-0.02,0.0,-0.07,0.07
0.4968421459197998,-0.03,0.0,-0.07,0.07
0.4971461296081543,-0.03,0.0,-0.07,0.07
0.49752211570739746,-0.03,0.0,-0.06,0.06
0.500521183013916,-0.02,0.0,-0.06,0.06
0.5105631351470947,-0.02,0.0,-0.07,0.07
0.5203521251678467,-0.03,0.0,-0.07,0.07
0.5305771827697754,-0.02,0.0,-0.06,0.06
0.5403842926025391,-0.03,0.0,-0.06,0.06
0.5504813194274902,-0.03,-0.01,-0.06,0.06
0.5621631145477295,-0.03,0.0,-0.06,0.06
0.595980167388916,-0.03,0.0,-0.06,0.06
0.5962619781494141,-0.03,0.0,-0.06,0.06
0.5966920852661133,-0.02,0.0,-0.06,0.06
0.5999231338500977,-0.03,0.0,-0.07,0.07
0.6100702285766602,-0.02,-0.01,-0.07,0.07
0.6198451519012451,-0.02,-0.01,-0.06,0.06
0.6298279762268066,-0.02,0.0,-0.06,0.06
0.6397931575775146,-0.03,0.0,-0.06,0.06
0.6499342918395996,-0.02,-0.01,-0.06,0.06
0.6616392135620117,-0.02,0.0,-0.06,0.06
0.697108268737793,-0.03,0.0,-0.06,0.06
0.6975491046905518,-0.02,0.0,-0.07,0.07
0.6978781223297119,-0.03,0.0,-0.07,0.07
0.6993851661682129,-0.03,0.0,-0.05,0.05
0.7094192504882812,-0.02,0.0,-0.06,0.06
0.7192230224609375,-0.02,-0.01,-0.07,0.07
0.7291812896728516,-0.02,-0.01,-0.07,0.07
0.7392110824584961,-0.02,0.0,-0.06,0.06
0.7492311000823975,-0.02,0.0,-0.06,0.06
0.7610282897949219,-0.02,0.0,-0.06,0.06
0.7975430488586426,-0.02,0.0,-0.06,0.06
0.7981052398681641,-0.03,0.0,-0.05,0.05
0.7985262870788574,-0.02,0.0,-0.07,0.07
0.7989251613616943,-0.02,0.01,-0.06,0.06
0.8087320327758789,-0.02,0.0,-0.06,0.06
0.8186860084533691,-0.03,0.0,-0.07,0.07
0.8286380767822266,-0.03,0.0,-0.07,0.07
0.8386611938476562,-0.02,0.0,-0.06,0.06
0.8484692573547363,-0.02,0.0,-0.06,0.06
0.8869531154632568,-0.02,0.0,-0.06,0.06
0.8875131607055664,-0.02,-0.01,-0.06,0.06
0.8885502815246582,-0.02,0.0,-0.05,0.05
0.8889951705932617,-0.01,-0.01,-0.06,0.06
0.8986272811889648,-0.01,0.01,-0.06,0.06
0.9083232879638672,-0.02,0.0,-0.07,0.07
0.9182720184326172,-0.03,0.0,-0.07,0.07
0.9282312393188477,-0.02,0.0,-0.07,0.07
0.9380340576171875,-0.03,0.0,-0.07,0.07
0.9482913017272949,-0.02,0.0,-0.06,0.06
0.9598541259765625,-0.03,0.0,-0.06,0.06
0.9680972099304199,-0.02,0.0,-0.06,0.06
0.9985451698303223,-0.02,0.0,-0.06,0.06
0.9990930557250977,-0.02,-0.01,-0.07,0.07
0.9995861053466797,-0.03,0.0,-0.06,0.06
1.007585048675537,-0.03,0.0,-0.07,0.07
1.0175271034240723,-0.03,-0.01,-0.06,0.06
1.0277142524719238,-0.02,0.0,-0.05,0.05
1.037405014038086,-0.02,0.0,-0.06,0.06
1.0474791526794434,-0.03,0.0,-0.07,0.07
1.0593490600585938,-0.03,-0.01,-0.06,0.06
1.0675251483917236,-0.02,0.0,-0.06,0.06
1.0980830192565918,-0.02,0.0,-0.06,0.06
1.0983662605285645,-0.02,0.0,-0.06,0.06
1.0986261367797852,-0.02,0.0,-0.06,0.06
1.107344150543213,-0.02,0.0,-0.07,0.07
1.1170120239257812,-0.02,0.01,-0.06,0.06
1.127096176147461,-0.02,0.0,-0.07,0.07
1.1369411945343018,-0.02,0.0,-0.07,0.07
1.1468729972839355,-0.03,-0.01,-0.07,0.07
1.1586790084838867,-0.03,0.0,-0.06,0.06
1.1668651103973389,-0.02,0.0,-0.06,0.06
1.1984400749206543,-0.02,-0.01,-0.06,0.06
1.1988110542297363,-0.03,-0.01,-0.06,0.06
1.1992831230163574,-0.02,0.0,-0.07,0.07
1.2063491344451904,-0.02,0.0,-0.07,0.07
1.2163772583007812,-0.02,-0.01,-0.07,0.07
1.2264680862426758,-0.01,0.0,-0.06,0.06
1.2362771034240723,-0.03,0.0,-0.07,0.07
1.2463271617889404,-0.02,0.01,-0.06,0.06
1.2580289840698242,-0.02,0.0,-0.07,0.07
1.266266107559204,-0.02,-0.01,-0.07,0.07
1.2988471984863281,-0.02,0.0,-0.05,0.05
1.2992281913757324,-0.02,0.0,-0.06,0.06
1.2995030879974365,-0.02,0.0,-0.06,0.06
1.3056793212890625,-0.02,0.0,-0.05,0.05
1.3158941268920898,-0.02,0.01,-0.05,0.05
1.3258531093597412,-0.02,0.0,-0.06,0.06
1.335665225982666,-0.02,0.0,-0.07,0.07
1.3455772399902344,-0.02,0.0,-0.06,0.06
1.3568141460418701,-0.01,0.0,-0.06,0.06
1.3657641410827637,-0.02,0.0,-0.07,0.07
1.398679256439209,-0.02,0.0,-0.06,0.06
1.3989973068237305,-0.02,0.0,-0.06,0.06
1.3994591236114502,-0.01,0.01,-0.05,0.05
1.405320167541504,-0.02,0.01,-0.07,0.07
1.4152932167053223,-0.02,0.0,-0.06,0.06
1.4250860214233398,-0.01,0.0,-0.06,0.06
1.4351892471313477,-0.02,0.01,-0.06,0.06
1.4450922012329102,-0.03,0.0,-0.06,0.06
1.4567432403564453,-0.03,0.0,-0.06,0.06
1.4650230407714844,-0.03,0.0,-0.06,0.06
1.5006260871887207,-0.02,0.0,-0.06,0.06
1.5009303092956543,-0.02,0.0,-0.06,0.06
1.501345157623291,-0.01,-0.01,-0.06,0.06
1.5046629905700684,-0.03,0.0,-0.06,0.06
1.5146832466125488,-0.01,0.0,-0.06,0.06
1.5245909690856934,-0.02,0.0,-0.06,0.06
1.5345101356506348,-0.03,0.0,-0.06,0.06
1.5445880889892578,-0.02,0.0,-0.05,0.05
1.5569782257080078,-0.02,0.0,-0.07,0.07
1.5644550323486328,-0.02,0.0,-0.07,0.07
1.6015729904174805,-0.03,0.0,-0.06,0.06
1.6019561290740967,-0.02,0.0,-0.06,0.06
1.602229118347168,-0.02,0.0,-0.06,0.06
1.6040163040161133,-0.02,-0.01,-0.06,0.06
1.6141242980957031,-0.03,0.0,-0.06,0.06
1.624101161956787,-0.03,-0.01,-0.07,0.07
1.6338601112365723,-0.03,-0.01,-0.07,0.07
1.644021987915039,-0.03,0.0,-0.06,0.06
1.6832141876220703,-0.03,0.0,-0.05,0.05
1.6836521625518799,-0.02,0.0,-0.06,0.06
1.6840240955352783,-0.03,-0.01,-0.06,0.06
1.6843891143798828,-0.02,0.0,-0.06,0.06
1.6935462951660156,-0.02,0.0,-0.06,0.06
1.7035260200500488,-0.02,0.0,-0.05,0.05
1.713543176651001,-0.02,0.0,-0.07,0.07
1.7235040664672852,-0.02,-0.01,-0.05,0.05
1.7334651947021484,-0.01,-0.01,-0.05,0.05
1.7436261177062988,-0.03,0.01,-0.06,0.06
1.7841072082519531,-0.02,0.0,-0.06,0.06
1.7844209671020508,-0.02,0.0,-0.06,0.06
1.78468918800354,-0.02,0.0,-0.06,0.06
1.7850360870361328,-0.02,0.0,-0.07,0.07
1.7928781509399414,-0.02,0.0,-0.07,0.07
1.8030710220336914,-0.03,0.01,-0.06,0.06
1.8129830360412598,-0.02,0.0,-0.06,0.06
1.8227741718292236,-0.03,0.0,-0.06,0.06
1.8326961994171143,-0.03,0.01,-0.06,0.06
1.842656135559082,-0.02,0.01,-0.06,0.06
1.8546981811523438,-0.02,-0.01,-0.06,0.06
1.8820672035217285,-0.02,0.0,-0.06,0.06
1.8824691772460938,-0.02,0.0,-0.07,0.07
1.8828520774841309,-0.02,-0.01,-0.06,0.06
1.8924481868743896,-0.02,0.0,-0.06,0.06
1.902400016784668,-0.03,0.0,-0.07,0.07
1.9123940467834473,-0.02,0.0,-0.06,0.06
1.9223170280456543,-0.02,0.0,-0.07,0.07
1.932293176651001,-0.03,-0.01,-0.06,0.06
1.9423041343688965,-0.03,0.0,-0.05,0.05
1.953984260559082,-0.03,0.0,-0.06,0.06
1.9838531017303467,-0.02,0.01,-0.06,0.06
1.9842872619628906,-0.03,0.0,-0.06,0.06
1.984607219696045,-0.03,-0.01,-0.06,0.06
1.991868019104004,-0.02,-0.01,-0.06,0.06
2.001735210418701,-0.02,0.0,-0.06,0.06
2.0117430686950684,-0.02,0.0,-0.06,0.06
2.021658182144165,-0.03,0.0,-0.06,0.06
2.031665086746216,-0.02,0.0,-0.06,0.06
2.041457176208496,-0.02,0.0,-0.06,0.06
2.053769111633301,-0.01,0.0,-0.07,0.07
2.0847063064575195,-0.01,0.0,-0.07,0.07
2.085000991821289,-0.01,0.0,-0.07,0.07
2.0854032039642334,-0.02,0.0,-0.07,0.07
2.0912632942199707,-0.03,0.0,-0.06,0.06
2.1012182235717773,-0.01,0.0,-0.06,0.06
2.111186981201172,-0.02,0.0,-0.06,0.06
2.121042251586914,-0.02,0.0,-0.06,0.06
2.1311120986938477,-0.02,0.0,-0.07,0.07
2.1411452293395996,-0.03,0.0,-0.06,0.06
2.1528100967407227,-0.03,0.0,-0.06,0.06
2.1864120960235596,-0.02,0.0,-0.06,0.06
2.186798095703125,-0.02,0.0,-0.07,0.07
2.1871461868286133,-0.02,0.0,-0.06,0.06
2.1905622482299805,-0.02,0.01,-0.07,0.07
2.20072603225708,-0.02,0.0,-0.07,0.07
2.21044921875,-0.02,0.0,-0.06,0.06
2.220579147338867,-0.03,0.0,-0.06,0.06
2.2304930686950684,-0.01,-0.01,-0.06,0.06
2.2403130531311035,-0.02,-0.01,-0.06,0.06
2.2523791790008545,-0.02,0.0,-0.06,0.06
2.283595085144043,-0.02,0.0,-0.06,0.06
2.28387713432312,-0.02,0.0,-0.06,0.06
2.28434419631958,-0.03,-0.01,-0.06,0.06
2.2900819778442383,-0.02,0.0,-0.06,0.06
2.3001761436462402,-0.02,0.01,-0.07,0.07
2.3100881576538086,-0.03,0.0,-0.06,0.06
2.319920063018799,-0.03,0.0,-0.07,0.07
2.3299171924591064,-0.02,0.0,-0.07,0.07
2.340097188949585,-0.02,0.0,-0.06,0.06
2.351806163787842,-0.01,0.0,-0.07,0.07
2.3852531909942627,-0.02,0.0,-0.05,0.05
2.3856520652770996,-0.02,0.0,-0.06,0.06
2.3859782218933105,-0.02,0.01,-0.06,0.06
2.3894851207733154,-0.03,0.0,-0.06,0.06
2.3993849754333496,-0.03,0.0,-0.06,0.06
2.409334182739258,-0.01,0.0,-0.06,0.06
2.4193263053894043,-0.02,0.0,-0.06,0.06
2.4292421340942383,-0.03,0.0,-0.06,0.06
2.439291000366211,-0.02,0.0,-0.07,0.07
2.4512581825256348,-0.02,0.0,-0.06,0.06
2.4865989685058594,-0.02,0.0,-0.07,0.07
2.4871251583099365,-0.03,0.01,-0.06,0.06
2.4874520301818848,-0.03,0.0,-0.06,0.06
2.4887771606445312,-0.02,-0.01,-0.06,0.06
2.4989101886749268,-0.02,0.0,-0.06,0.06
2.508716106414795,-0.02,0.0,-0.07,0.07
2.5188369750976562,-0.03,0.0,-0.07,0.07
2.5287861824035645,-0.02,0.0,-0.06,0.06
2.5388801097869873,-0.01,-0.01,-0.07,0.07
2.550596237182617,-0.01,0.0,-0.06,0.06
2.5856070518493652,-0.01,0.0,-0.05,0.05
2.5860342979431152,-0.02,0.0,-0.06,0.06
2.586306095123291,-0.02,0.0,-0.06,0.06
2.588181972503662,-0.02,0.0,-0.07,0.07
2.598466157913208,-0.02,0.01,-0.07,0.07
2.608124256134033,-0.03,0.0,-0.06,0.06
2.6182780265808105,-0.02,0.0,-0.06,0.06
2.628070116043091,-0.02,-0.01,-0.06,0.06
2.6380650997161865,-0.02,0.0,-0.06,0.06
2.6500682830810547,-0.03,0.0,-0.07,0.07
2.687577247619629,-0.02,0.0,-0.06,0.06
2.6879630088806152,-0.02,0.01,-0.06,0.06
2.688350200653076,-0.02,0.0,-0.05,0.05
2.688676118850708,-0.02,0.0,-0.06,0.06
2.697659969329834,-0.02,0.0,-0.06,0.06
2.707667112350464,-0.02,0.0,-0.05,0.05
2.7177481651306152,-0.02,0.0,-0.06,0.06
2.727632999420166,-0.01,-0.01,-0.07,0.07
2.737605094909668,-0.02,0.0,-0.06,0.06
2.7491281032562256,-0.02,0.0,-0.06,0.06
2.7575292587280273,-0.02,0.0,-0.07,0.07
2.787580966949463,-0.02,0.0,-0.06,0.06
2.7879631519317627,-0.02,0.0,-0.07,0.07
2.7883810997009277,-0.03,0.0,-0.06,0.06
2.797229290008545,-0.03,0.01,-0.06,0.06
2.807455062866211,-0.02,0.0,-0.07,0.07
2.8171281814575195,-0.02,0.0,-0.06,0.06
2.827247142791748,-0.02,0.0,-0.07,0.07
2.8369712829589844,-0.01,-0.01,-0.07,0.07
2.8491172790527344,-0.02,-0.01,-0.06,0.06
2.8570661544799805,-0.03,-0.01,-0.05,0.05
2.888272285461426,-0.02,0.0,-0.07,0.07
2.8886961936950684,-0.02,-0.01,-0.06,0.06
2.88907527923584,-0.01,-0.01,-0.07,0.07
2.896634101867676,-0.02,0.0,-0.05,0.05
2.906464099884033,-0.02,0.0,-0.07,0.07
2.9164810180664062,-0.02,0.0,-0.07,0.07
2.926452159881592,-0.02,0.0,-0.05,0.05
2.9364781379699707,-0.01,0.0,-0.06,0.06
2.9482502937316895,-0.02,0.0,-0.07,0.07
2.956334114074707,-0.03,0.0,-0.07,0.07
2.985762119293213,-0.02,0.0,-0.05,0.05
2.9861440658569336,-0.02,0.0,-0.06,0.06
2.9864161014556885,-0.02,0.0,-0.06,0.06
2.995944023132324,-0.01,0.0,-0.07,0.07
3.0058302879333496,-0.01,0.0,-0.07,0.07
3.016066074371338,-0.02,-0.01,-0.07,0.07
3.025818109512329,-0.02,0.0,-0.06,0.06
3.0359182357788086,-0.03,0.0,-0.07,0.07
3.0476670265197754,-0.02,-0.01,-0.06,0.06
3.05587100982666,-0.02,0.0,-0.06,0.06
3.087031126022339,-0.01,0.0,-0.05,0.05
3.0874552726745605,-0.03,0.0,-0.06,0.06
3.0877280235290527,-0.03,0.0,-0.06,0.06
3.0953822135925293,-0.02,0.0,-0.06,0.06
3.1053600311279297,-0.02,0.0,-0.06,0.06
3.1152892112731934,-0.02,0.0,-0.07,0.07
3.125598192214966,-0.02,-0.01,-0.05,0.05
3.1352860927581787,-0.02,0.0,-0.07,0.07
3.1464571952819824,-0.01,-0.01,-0.07,0.07
3.1552791595458984,-0.02,-0.01,-0.06,0.06
3.1867032051086426,-0.01,0.0,-0.06,0.06
3.1870901584625244,-0.02,0.0,-0.06,0.06
3.1873631477355957,-0.02,0.0,-0.06,0.06
3.194854259490967,-0.02,0.0,-0.06,0.06
3.204949140548706,-0.02,-0.01,-0.05,0.05
3.2149453163146973,-0.02,0.0,-0.06,0.06
3.2247772216796875,-0.03,0.0,-0.07,0.07
3.2347192764282227,-0.02,0.0,-0.07,0.07
3.246746063232422,-0.03,-0.01,-0.06,0.06
3.254733085632324,-0.02,0.0,-0.06,0.06
3.2883481979370117,-0.02,0.0,-0.06,0.06
3.288776159286499,-0.02,0.0,-0.05,0.05
3.289177179336548,-0.02,-0.01,-0.06,0.06
3.2941911220550537,-0.02,0.0,-0.07,0.07
3.3041701316833496,-0.02,0.0,-0.06,0.06
3.314146041870117,-0.01,0.0,-0.06,0.06
3.324064254760742,-0.01,0.0,-0.07,0.07
3.3341171741485596,-0.02,0.0,-0.07,0.07
3.345823287963867,-0.03,0.0,-0.06,0.06
3.354262113571167,-0.02,0.01,-0.07,0.07
3.3891382217407227,-0.03,-0.01,-0.06,0.06
3.3894991874694824,-0.03,0.0,-0.06,0.06
3.3898181915283203,-0.02,0.0,-0.06,0.06
3.3934860229492188,-0.01,0.0,-0.06,0.06
3.4034581184387207,-0.02,0.0,-0.06,0.06
3.4134902954101562,-0.02,0.0,-0.07,0.07
3.4234890937805176,-0.02,0.0,-0.06,0.06
3.4333701133728027,-0.02,0.0,-0.06,0.06
3.444507122039795,-0.03,0.0,-0.06,0.06
3.4537720680236816,-0.02,0.0,-0.07,0.07
3.489068031311035,-0.02,0.0,-0.06,0.06
3.4893832206726074,-0.02,0.0,-0.07,0.07
3.489628314971924,-0.02,0.0,-0.07,0.07
3.493211269378662,-0.02,0.0,-0.06,0.06
3.503145217895508,-0.01,0.0,-0.08,0.08
3.513045310974121,-0.02,0.0,-0.06,0.06
3.5228190422058105,-0.02,0.0,-0.06,0.06
3.532884120941162,-0.02,0.0,-0.07,0.07
3.5701112747192383,-0.02,-0.01,-0.06,0.06
3.570435047149658,-0.02,-0.01,-0.05,0.05
3.570775032043457,-0.02,0.0,-0.06,0.06
3.5724172592163086,-0.02,0.0,-0.06,0.06
3.582402229309082,-0.02,0.0,-0.06,0.06
3.592440128326416,-0.01,-0.01,-0.06,0.06
3.6024281978607178,-0.02,0.0,-0.06,0.06
3.612387180328369,-0.02,0.01,-0.07,0.07
3.6223483085632324,-0.02,-0.01,-0.06,0.06
3.632268190383911,-0.02,0.0,-0.06,0.06
3.6710243225097656,-0.02,0.0,-0.06,0.06
3.67134428024292,-0.02,0.0,-0.06,0.06
3.671868085861206,-0.01,-0.01,-0.07,0.07
3.672187089920044,-0.02,0.0,-0.07,0.07
3.6818342208862305,-0.02,0.0,-0.07,0.07
3.6917881965637207,-0.02,0.0,-0.07,0.07
3.7018532752990723,-0.02,0.0,-0.06,0.06
3.7117080688476562,-0.02,0.0,-0.06,0.06
3.7217659950256348,-0.02,-0.01,-0.07,0.07
3.7319791316986084,-0.01,0.0,-0.07,0.07
3.743453025817871,-0.01,0.0,-0.07,0.07
3.7719202041625977,-0.01,0.0,-0.06,0.06
3.7723469734191895,-0.02,0.0,-0.07,0.07
3.772679090499878,-0.02,0.0,-0.05,0.05
3.781449317932129,-0.02,0.0,-0.07,0.07
3.7913122177124023,-0.02,0.0,-0.05,0.05
3.801358222961426,-0.02,0.0,-0.07,0.07
3.8110201358795166,-0.02,0.0,-0.07,0.07
3.8212599754333496,-0.01,0.0,-0.06,0.06
3.8313841819763184,-0.03,0.0,-0.05,0.05
3.84312105178833,-0.02,-0.01,-0.06,0.06
3.8736791610717773,-0.02,-0.01,-0.07,0.07
3.87410306930542,-0.02,0.0,-0.06,0.06
3.874483108520508,-0.02,-0.01,-0.07,0.07
3.88070011138916,-0.02,-0.01,-0.07,0.07
3.8908090591430664,-0.01,0.0,-0.07,0.07
3.9006412029266357,-0.01,0.0,-0.07,0.07
3.91064715385437,-0.01,0.0,-0.06,0.06
3.920562267303467,-0.02,0.0,-0.06,0.06
3.930551052093506,-0.02,0.0,-0.06,0.06
3.942286968231201,-0.02,0.0,-0.06,0.06
3.9738001823425293,-0.01,-0.01,-0.06,0.06
3.9742391109466553,-0.02,-0.01,-0.07,0.07
3.9746251106262207,-0.02,0.0,-0.06,0.06
3.9800453186035156,-0.02,0.0,-0.06,0.06
3.990053176879883,-0.02,0.0,-0.06,0.06
4.000139236450195,-0.01,-0.01,-0.06,0.06
4.007578134536743,-0.02,0.0,-0.05,0.05
4.017435073852539,-0.02,0.0,-0.06,0.06
4.027550220489502,-0.02,0.0,-0.07,0.07
4.039037227630615,-0.02,0.0,-0.07,0.07
4.07289719581604,-0.02,0.0,-0.06,0.06
4.073263168334961,-0.01,0.0,-0.06,0.06
4.073628187179565,-0.02,-0.01,-0.06,0.06
4.0770583152771,-0.02,-0.01,-0.07,0.07
4.087154150009155,-0.02,0.0,-0.07,0.07
4.097180128097534,-0.02,-0.01,-0.06,0.06
4.107125282287598,-0.03,-0.01,-0.07,0.07
4.1170172691345215,-0.03,0.0,-0.05,0.05
4.127232074737549,-0.02,-0.01,-0.06,0.06
4.138741970062256,-0.02,0.0,-0.07,0.07
4.173201084136963,-0.02,0.0,-0.07,0.07
4.173597097396851,-0.02,0.0,-0.06,0.06
4.1740381717681885,-0.01,-0.01,-0.07,0.07
4.176433086395264,-0.01,0.0,-0.07,0.07
4.186501979827881,-0.01,0.0,-0.06,0.06
4.196365118026733,-0.01,0.0,-0.07,0.07
4.206455230712891,-0.01,0.0,-0.06,0.06
4.2161431312561035,-0.01,0.0,-0.06,0.06
4.226551055908203,-0.02,0.0,-0.07,0.07
4.238084316253662,-0.03,0.0,-0.07,0.07
4.274656295776367,-0.02,0.0,-0.07,0.07
4.275018215179443,-0.03,0.0,-0.07,0.07
4.275399208068848,-0.02,-0.01,-0.07,0.07
4.2757792472839355,-0.02,-0.01,-0.07,0.07
4.2858641147613525,-0.01,-0.01,-0.06,0.06
4.29560112953186,-0.01,0.0,-0.06,0.06
4.305849075317383,-0.02,0.0,-0.07,0.07
4.315746307373047,-0.02,0.0,-0.06,0.06
4.325875282287598,-0.02,0.0,-0.07,0.07
4.337637186050415,-0.02,0.0,-0.06,0.06
4.373800277709961,-0.02,-0.01,-0.06,0.06
4.374202251434326,-0.01,0.0,-0.06,0.06
4.374520301818848,-0.02,0.0,-0.06,0.06
4.375370979309082,-0.01,0.0,-0.08,0.08
4.3854451179504395,-0.02,0.0,-0.07,0.07
4.395817279815674,-0.01,0.0,-0.06,0.06
4.405246257781982,-0.02,0.0,-0.07,0.07
4.4151411056518555,-0.01,0.0,-0.07,0.07
4.425136089324951,-0.02,0.0,-0.07,0.07
4.437020301818848,-0.02,0.0,-0.06,0.06
4.44500207901001,-0.02,0.0,-0.06,0.06
4.4743711948394775,-0.02,0.0,-0.06,0.06
4.474752187728882,-0.02,-0.01,-0.06,0.06
4.478445053100586,-0.02,-0.01,-0.07,0.07
4.488478183746338,-0.01,0.01,-0.06,0.06
4.498460292816162,-0.01,0.0,-0.07,0.07
4.508414268493652,-0.01,0.0,-0.06,0.06
4.518311023712158,-0.01,-0.01,-0.06,0.06
4.528611183166504,-0.02,0.0,-0.05,0.05
4.540255069732666,-0.01,-0.01,-0.06,0.06
4.575627088546753,-0.01,0.0,-0.06,0.06
4.576073169708252,-0.02,0.0,-0.07,0.07
4.57634711265564,-0.02,0.0,-0.07,0.07
4.577795028686523,-0.02,0.0,-0.07,0.07
4.587944030761719,-0.02,0.0,-0.06,0.06
4.597776174545288,-0.01,-0.01,-0.06,0.06
4.607970237731934,-0.02,0.0,-0.07,0.07
4.617878198623657,-0.02,0.0,-0.06,0.06
4.627676010131836,-0.02,0.0,-0.06,0.06
4.639654159545898,-0.03,0.0,-0.06,0.06
4.675440311431885,-0.02,-0.01,-0.05,0.05
4.675918102264404,-0.01,0.0,-0.07,0.07
4.676303148269653,-0.01,-0.01,-0.06,0.06
4.6774373054504395,-0.01,0.0,-0.07,0.07
4.687499046325684,-0.02,-0.01,-0.07,0.07
4.69723916053772,-0.02,0.0,-0.06,0.06
4.707334041595459,-0.02,-0.01,-0.06,0.06
4.717278003692627,-0.02,-0.01,-0.07,0.07
4.727244138717651,-0.02,0.0,-0.07,0.07
4.739048004150391,-0.01,-0.01,-0.06,0.06
4.7756452560424805,-0.02,-0.01,-0.05,0.05
4.77596116065979,-0.02,-0.01,-0.05,0.05
4.77632999420166,-0.02,-0.01,-0.06,0.06
4.776694297790527,-0.01,0.0,-0.06,0.06
4.786917209625244,-0.02,0.0,-0.06,0.06
4.796671152114868,-0.02,-0.01,-0.06,0.06
4.806823253631592,-0.02,0.0,-0.07,0.07
4.816728115081787,-0.02,-0.01,-0.07,0.07
4.826580047607422,-0.01,-0.01,-0.06,0.06
4.838449001312256,-0.02,0.0,-0.06,0.06
4.846731185913086,-0.01,0.0,-0.07,0.07
4.8778510093688965,-0.02,-0.01,-0.06,0.06
4.87822413444519,-0.03,-0.01,-0.06,0.06
4.878679275512695,-0.02,0.0,-0.07,0.07
4.886177062988281,-0.02,0.0,-0.07,0.07
4.896175146102905,-0.02,0.0,-0.06,0.06
4.905989170074463,-0.02,0.0,-0.06,0.06
4.916186094284058,-0.01,-0.01,-0.07,0.07
4.925889015197754,-0.01,-0.01,-0.07,0.07
4.963283061981201,-0.02,0.0,-0.06,0.06
4.964395046234131,-0.02,0.0,-0.07,0.07
4.964677095413208,-0.02,0.0,-0.06,0.06
4.965625286102295,-0.01,0.0,-0.06,0.06
4.975661277770996,-0.01,0.0,-0.05,0.05
4.98568320274353,-0.02,-0.01,-0.06,0.06
4.995469093322754,-0.03,-0.01,-0.06,0.06
5.005491256713867,-0.03,0.0,-0.07,0.07
5.01550817489624,-0.02,-0.01,-0.06,0.06
5.025483131408691,-0.01,0.0,-0.06,0.06
5.037190198898315,-0.02,0.0,-0.07,0.07
5.045579195022583,-0.02,-0.01,-0.06,0.06
5.076197147369385,-0.02,-0.01,-0.06,0.06
5.076623201370239,-0.02,-0.01,-0.07,0.07
5.07711124420166,-0.01,0.0,-0.06,0.06
5.085103988647461,-0.02,0.0,-0.06,0.06
5.094988107681274,-0.02,0.0,-0.06,0.06
5.105014085769653,-0.01,0.0,-0.06,0.06
5.114859104156494,-0.01,-0.01,-0.06,0.06
5.1250221729278564,-0.02,-0.01,-0.07,0.07
5.136703968048096,-0.02,0.0,-0.06,0.06
5.144982099533081,-0.01,0.0,-0.06,0.06
5.17774510383606,-0.02,-0.01,-0.07,0.07
5.1782002449035645,-0.01,0.0,-0.06,0.06
5.178524971008301,-0.02,0.0,-0.06,0.06
5.18435001373291,-0.02,0.0,-0.06,0.06
5.194308280944824,-0.02,0.0,-0.06,0.06
5.204349040985107,-0.02,-0.01,-0.06,0.06
5.214425086975098,-0.01,-0.01,-0.06,0.06
5.224184989929199,-0.02,-0.01,-0.06,0.06
5.2353081703186035,-0.02,-0.01,-0.06,0.06
5.244410037994385,-0.01,-0.01,-0.06,0.06
5.276626110076904,-0.02,-0.01,-0.06,0.06
5.2770819664001465,-0.01,-0.01,-0.07,0.07
5.277521133422852,-0.02,0.0,-0.06,0.06
5.283771991729736,-0.02,0.0,-0.06,0.06
5.293719291687012,-0.02,0.0,-0.06,0.06
5.303705215454102,-0.02,0.0,-0.07,0.07
5.313732147216797,-0.02,-0.01,-0.06,0.06
5.32369327545166,-0.02,-0.01,-0.07,0.07
5.334798097610474,-0.01,0.0,-0.07,0.07
5.343760013580322,-0.01,-0.01,-0.06,0.06
5.378011226654053,-0.01,-0.01,-0.07,0.07
5.3784990310668945,-0.02,0.0,-0.06,0.06
5.378754138946533,-0.02,0.0,-0.06,0.06
5.383057117462158,-0.02,-0.01,-0.06,0.06
5.393231153488159,-0.02,0.0,-0.06,0.06
5.403167247772217,-0.02,-0.01,-0.06,0.06
5.4132421016693115,-0.01,0.0,-0.06,0.06
5.423072099685669,-0.02,0.0,-0.06,0.06
5.43411922454834,-0.02,-0.01,-0.06,0.06
5.443181991577148,-0.02,0.0,-0.06,0.06
5.476887226104736,-0.02,0.0,-0.06,0.06
5.477168083190918,-0.02,0.0,-0.06,0.06
5.477679252624512,-0.01,0.0,-0.07,0.07
5.48245906829834,-0.01,-0.01,-0.07,0.07
5.492716312408447,-0.02,0.0,-0.06,0.06
5.502498149871826,-0.02,-0.01,-0.06,0.06
5.512488126754761,-0.02,0.0,-0.06,0.06
5.522372245788574,-0.02,0.0,-0.06,0.06
5.560150146484375,-0.02,0.0,-0.06,0.06
5.56069803237915,-0.01,-0.01,-0.06,0.06
5.560986042022705,-0.02,-0.01,-0.06,0.06
5.562174320220947,-0.02,0.0,-0.06,0.06
5.572236061096191,-0.02,-0.01,-0.07,0.07
5.582289218902588,-0.02,-0.01,-0.06,0.06
5.592118263244629,-0.01,0.0,-0.07,0.07
5.601975202560425,-0.02,0.0,-0.06,0.06
5.612040042877197,-0.02,0.0,-0.07,0.07
5.622063159942627,-0.01,-0.01,-0.06,0.06
5.662846088409424,-0.02,0.0,-0.07,0.07
5.663259983062744,-0.02,-0.01,-0.06,0.06
5.6635801792144775,-0.03,-0.01,-0.06,0.06
5.663904190063477,-0.03,-0.01,-0.07,0.07
5.671662092208862,-0.02,-0.01,-0.06,0.06
5.681589126586914,-0.01,-0.01,-0.06,0.06
5.691449165344238,-0.02,-0.01,-0.06,0.06
5.701439142227173,-0.01,-0.01,-0.05,0.05
5.711403131484985,-0.02,-0.01,-0.06,0.06
5.721362113952637,-0.02,0.0,-0.07,0.07
5.761346101760864,-0.01,0.0,-0.05,0.05
5.761659145355225,-0.01,0.0,-0.07,0.07
5.761965274810791,-0.02,0.0,-0.06,0.06
5.762221097946167,-0.03,0.0,-0.06,0.06
5.771074295043945,-0.02,-0.01,-0.06,0.06
5.780907154083252,-0.02,0.0,-0.06,0.06
5.79081916809082,-0.02,0.0,-0.06,0.06
5.800770282745361,-0.02,0.0,-0.06,0.06
5.810728073120117,-0.02,0.0,-0.06,0.06
5.820606231689453,-0.02,-0.01,-0.06,0.06
5.8327202796936035,-0.01,-0.01,-0.06,0.06
5.863047122955322,-0.03,0.0,-0.06,0.06
5.863351106643677,-0.01,0.0,-0.06,0.06
5.863612174987793,-0.02,0.0,-0.06,0.06
5.870438098907471,-0.02,-0.01,-0.06,0.06
5.880346298217773,-0.01,0.0,-0.06,0.06
5.890426158905029,-0.02,0.0,-0.06,0.06
5.900132179260254,-0.02,-0.01,-0.06,0.06
5.910287141799927,-0.02,0.0,-0.07,0.07
5.9201250076293945,-0.02,0.0,-0.06,0.06
5.931854248046875,-0.02,0.0,-0.06,0.06
5.962024211883545,-0.02,-0.01,-0.07,0.07
5.96244215965271,-0.03,-0.01,-0.06,0.06
5.962804317474365,-0.02,0.0,-0.06,0.06
5.9698991775512695,-0.02,-0.01,-0.07,0.07
5.979880094528198,-0.02,0.0,-0.07,0.07
5.989662170410156,-0.02,0.0,-0.06,0.06
5.999766111373901,-0.01,-0.01,-0.06,0.06
6.009693145751953,-0.02,-0.01,-0.06,0.06
6.019492149353027,-0.02,-0.01,-0.06,0.06
6.031472206115723,-0.01,0.0,-0.06,0.06
6.062942028045654,-0.02,-0.01,-0.06,0.06
6.063287258148193,-0.01,-0.01,-0.07,0.07
6.063600063323975,-0.01,0.0,-0.06,0.06
6.069306135177612,-0.02,0.0,-0.06,0.06
6.079061985015869,-0.02,0.0,-0.06,0.06
6.089101314544678,-0.02,0.0,-0.06,0.06
6.099184989929199,-0.02,0.0,-0.07,0.07
6.109063148498535,-0.02,0.0,-0.06,0.06
6.118955135345459,-0.02,-0.01,-0.06,0.06
6.13096809387207,-0.02,0.0,-0.05,0.05
6.163231134414673,-0.02,0.0,-0.05,0.05
6.163619041442871,-0.01,0.0,-0.06,0.06
6.163923263549805,-0.01,-0.01,-0.06,0.06
6.168589115142822,-0.01,-0.01,-0.06,0.06
6.178668022155762,-0.01,-0.01,-0.06,0.06
6.188667297363281,-0.02,0.0,-0.07,0.07
6.198667049407959,-0.01,-0.01,-0.06,0.06
6.20841121673584,-0.01,-0.01,-0.06,0.06
6.218505144119263,-0.02,-0.01,-0.06,0.06
6.230164051055908,-0.02,-0.01,-0.06,0.06
6.262165069580078,-0.02,0.0,-0.06,0.06
6.262549161911011,-0.02,-0.01,-0.05,0.05
6.262781143188477,-0.02,-0.01,-0.05,0.05
6.267998218536377,-0.02,-0.01,-0.07,0.07
6.2780210971832275,-0.02,-0.01,-0.07,0.07
6.287812232971191,-0.02,-0.01,-0.07,0.07
6.29795503616333,-0.02,0.0,-0.06,0.06
6.307990074157715,-0.01,0.0,-0.05,0.05
6.318004131317139,-0.02,-0.01,-0.06,0.06
6.32956600189209,-0.02,0.0,-0.06,0.06
6.363743305206299,-0.01,0.0,-0.06,0.06
6.364130973815918,-0.01,0.0,-0.07,0.07
6.364518165588379,-0.02,0.0,-0.06,0.06
6.367286205291748,-0.02,-0.01,-0.06,0.06
6.37751317024231,-0.02,0.0,-0.06,0.06
6.387319087982178,-0.01,-0.01,-0.06,0.06
6.397322177886963,-0.02,-0.01,-0.06,0.06
6.407201290130615,-0.02,-0.01,-0.07,0.07
6.417212009429932,-0.02,-0.01,-0.06,0.06
6.4289391040802,-0.02,-0.01,-0.06,0.06
6.463283061981201,-0.02,-0.01,-0.08,0.08
6.463712215423584,-0.02,0.0,-0.06,0.06
6.464047193527222,-0.02,-0.01,-0.06,0.06
6.466838121414185,-0.02,-0.01,-0.06,0.06
6.476977109909058,-0.02,0.0,-0.06,0.06
6.486839294433594,-0.01,-0.01,-0.06,0.06
6.496730089187622,-0.01,-0.01,-0.07,0.07
6.506781101226807,-0.02,0.0,-0.07,0.07
6.51670503616333,-0.02,0.0,-0.06,0.06
6.528480052947998,-0.01,0.0,-0.06,0.06
6.565098285675049,-0.02,0.0,-0.06,0.06
6.5655131340026855,-0.01,-0.01,-0.06,0.06
6.5658650398254395,-0.02,-0.01,-0.06,0.06
6.566416263580322,-0.02,-0.01,-0.07,0.07
6.576341152191162,-0.02,-0.01,-0.07,0.07
6.586205005645752,-0.02,-0.01,-0.07,0.07
6.596341133117676,-0.01,-0.01,-0.06,0.06
6.606122016906738,-0.01,-0.01,-0.06,0.06
6.616184234619141,-0.02,-0.01,-0.07,0.07
6.628169059753418,-0.01,0.0,-0.06,0.06
6.6644110679626465,-0.01,0.0,-0.06,0.06
6.664825201034546,-0.01,0.0,-0.07,0.07
6.665266990661621,-0.02,-0.01,-0.06,0.06
6.665588140487671,-0.02,-0.01,-0.06,0.06
6.675734043121338,-0.01,-0.01,-0.06,0.06
6.685477256774902,-0.01,-0.01,-0.07,0.07
6.695522308349609,-0.01,-0.01,-0.07,0.07
6.705522060394287,-0.03,-0.01,-0.07,0.07
6.7155561447143555,-0.02,-0.01,-0.07,0.07
6.7272021770477295,-0.02,-0.01,-0.06,0.06
6.765782117843628,-0.02,-0.01,-0.06,0.06
6.766184091567993,-0.02,0.0,-0.06,0.06
6.766549110412598,-0.02,-0.01,-0.06,0.06
6.76686429977417,-0.03,-0.01,-0.06,0.06
6.7751641273498535,-0.02,0.0,-0.06,0.06
6.784887313842773,-0.02,-0.01,-0.06,0.06
6.7949981689453125,-0.02,-0.01,-0.06,0.06
6.804859161376953,-0.02,-0.02,-0.06,0.06
6.814945220947266,-0.01,-0.01,-0.06,0.06
6.8265721797943115,-0.01,-0.01,-0.06,0.06
6.834989070892334,-0.02,-0.01,-0.06,0.06
6.866205215454102,-0.02,-0.01,-0.06,0.06
6.86649227142334,-0.02,-0.01,-0.06,0.06
6.866765022277832,-0.02,-0.01,-0.06,0.06
6.874693155288696,-0.02,0.0,-0.06,0.06
6.88447904586792,-0.02,-0.01,-0.06,0.06
6.894245147705078,-0.02,-0.01,-0.06,0.06
6.90437126159668,-0.02,0.0,-0.06,0.06
6.9143311977386475,-0.02,0.0,-0.06,0.06
6.953926086425781,-0.02,-0.01,-0.06,0.06
6.954808235168457,-0.02,-0.01,-0.07,0.07
6.955095291137695,-0.02,-0.01,-0.06,0.06
6.955357074737549,-0.02,-0.02,-0.06,0.06
6.96418309211731,0.0,0.0,-0.07,0.07
6.974009037017822,-0.02,0.0,-0.06,0.06
6.983838081359863,-0.02,0.0,-0.06,0.06
6.994143009185791,-0.01,-0.01,-0.05,0.05
7.0038161277771,-0.02,-0.01,-0.06,0.06
7.013648986816406,-0.02,-0.01,-0.06,0.06
7.025576114654541,-0.02,-0.02,-0.06,0.06
7.033890247344971,-0.02,0.0,-0.07,0.07
7.067309141159058,-0.01,0.0,-0.06,0.06
7.067697048187256,-0.02,-0.01,-0.05,0.05
7.068010091781616,-0.01,-0.01,-0.06,0.06
7.073379039764404,-0.02,-0.01,-0.07,0.07
7.083176136016846,-0.03,-0.01,-0.07,0.07
7.093409061431885,-0.01,-0.01,-0.06,0.06
7.1034979820251465,-0.02,0.0,-0.06,0.06
7.1131911277771,-0.02,0.0,-0.06,0.06
7.12449312210083,-0.02,-0.01,-0.07,0.07
7.133414268493652,-0.03,-0.01,-0.06,0.06
7.167225122451782,-0.02,-0.01,-0.06,0.06
7.167527198791504,-0.02,0.0,-0.06,0.06
7.1678831577301025,-0.02,-0.01,-0.07,0.07
7.172720193862915,-0.02,0.0,-0.06,0.06
7.182708263397217,-0.02,-0.01,-0.06,0.06
7.192623138427734,-0.01,-0.01,-0.06,0.06
7.202600002288818,-0.02,-0.01,-0.06,0.06
7.212674140930176,-0.02,-0.01,-0.07,0.07
7.223754167556763,-0.02,-0.01,-0.05,0.05
7.232608318328857,-0.01,-0.01,-0.07,0.07
7.266481161117554,-0.02,-0.01,-0.07,0.07
7.266855239868164,-0.01,-0.01,-0.06,0.06
7.267085075378418,-0.01,-0.01,-0.06,0.06
7.271927118301392,-0.01,-0.01,-0.06,0.06
7.2822651863098145,-0.02,0.0,-0.06,0.06
7.292029142379761,-0.02,-0.01,-0.06,0.06
7.302047252655029,-0.02,-0.01,-0.07,0.07
7.3120810985565186,-0.02,0.0,-0.06,0.06
7.32302713394165,-0.02,-0.01,-0.06,0.06
7.331874132156372,-0.02,-0.01,-0.06,0.06
7.366913318634033,-0.02,-0.01,-0.07,0.07
7.367224216461182,-0.02,-0.01,-0.06,0.06
7.367491245269775,-0.02,-0.01,-0.06,0.06
7.3715081214904785,-0.02,0.0,-0.07,0.07
7.381665229797363,-0.01,0.0,-0.06,0.06
7.39142918586731,-0.01,-0.01,-0.06,0.06
7.40139102935791,-0.01,-0.01,-0.07,0.07
7.411318302154541,-0.01,-0.01,-0.07,0.07
7.449795246124268,-0.01,0.0,-0.07,0.07
7.450061321258545,-0.01,0.0,-0.07,0.07
7.450502157211304,-0.02,-0.01,-0.05,0.05
7.450989246368408,-0.02,0.0,-0.06,0.06
7.461122989654541,-0.02,-0.01,-0.06,0.06
7.470815181732178,-0.02,-0.01,-0.06,0.06
7.480915069580078,-0.02,-0.01,-0.06,0.06
7.490925312042236,-0.02,-0.02,-0.06,0.06
7.50093412399292,-0.02,-0.01,-0.05,0.05
7.510818004608154,-0.02,-0.01,-0.07,0.07
7.522741317749023,-0.01,-0.01,-0.06,0.06
7.530840158462524,-0.02,-0.01,-0.07,0.07
7.567768096923828,-0.01,0.0,-0.07,0.07
7.568199157714844,-0.01,-0.01,-0.06,0.06
7.568490982055664,-0.01,-0.01,-0.07,0.07
7.570281028747559,-0.02,-0.01,-0.06,0.06
7.580543041229248,-0.01,-0.01,-0.08,0.08
7.5903639793396,-0.01,-0.01,-0.06,0.06
7.600159168243408,-0.01,-0.01,-0.06,0.06
7.610269069671631,-0.01,-0.01,-0.06,0.06
7.648184299468994,-0.02,-0.01,-0.06,0.06
7.648561000823975,-0.02,-0.01,-0.07,0.07
7.648917198181152,-0.02,0.0,-0.06,0.06
7.649759292602539,-0.02,-0.01,-0.06,0.06
7.659640312194824,-0.02,-0.01,-0.06,0.06
7.669809103012085,-0.02,0.0,-0.06,0.06
7.679810047149658,-0.02,-0.01,-0.06,0.06
7.689507007598877,-0.02,-0.01,-0.06,0.06
7.699704170227051,-0.02,-0.01,-0.07,0.07
7.709680080413818,-0.01,0.0,-0.07,0.07
7.747910976409912,-0.01,-0.02,-0.06,0.06
7.748258113861084,-0.02,-0.01,-0.06,0.06
7.748636245727539,-0.01,0.0,-0.07,0.07
7.749226093292236,-0.01,-0.01,-0.06,0.06
7.75934910774231,-0.02,0.0,-0.06,0.06
7.769359111785889,-0.02,-0.01,-0.06,0.06
7.779487133026123,-0.03,0.0,-0.06,0.06
7.789170265197754,-0.01,-0.01,-0.06,0.06
7.799166202545166,-0.02,-0.01,-0.06,0.06
7.809049129486084,-0.02,-0.01,-0.05,0.05
7.820630073547363,-0.03,-0.01,-0.07,0.07
7.849298000335693,-0.01,-0.01,-0.06,0.06
7.849555015563965,-0.01,-0.01,-0.06,0.06
7.849775314331055,-0.01,-0.01,-0.06,0.06
7.858814239501953,-0.02,-0.01,-0.06,0.06
7.868667125701904,-0.01,-0.01,-0.06,0.06
7.878617286682129,-0.01,-0.01,-0.06,0.06
7.888642311096191,-0.01,0.0,-0.06,0.06
7.898550987243652,-0.01,-0.01,-0.06,0.06
7.908485174179077,-0.02,-0.01,-0.07,0.07
7.9208760261535645,-0.02,-0.01,-0.06,0.06
7.950562000274658,-0.02,-0.01,-0.06,0.06
7.951012134552002,-0.02,-0.01,-0.05,0.05
7.951433181762695,-0.02,0.0,-0.06,0.06
7.958230972290039,-0.01,0.0,-0.06,0.06
7.968379974365234,-0.02,-0.01,-0.05,0.05
7.978139162063599,-0.02,0.0,-0.07,0.07
7.988056182861328,-0.01,-0.01,-0.06,0.06
7.998039245605469,0.0,-0.01,-0.07,0.07
8.00406813621521,-0.01,0.0,-0.07,0.07
8.016430139541626,-0.02,-0.01,-0.06,0.06
8.049767017364502,-0.01,-0.01,-0.05,0.05
8.050137996673584,-0.01,-0.01,-0.06,0.06
8.05040717124939,-0.01,-0.01,-0.06,0.06
8.053713321685791,-0.01,0.0,-0.06,0.06
8.063891172409058,-0.02,-0.01,-0.07,0.07
8.073575019836426,-0.03,-0.01,-0.07,0.07
8.083891153335571,-0.01,0.0,-0.07,0.07
8.093757152557373,-0.02,-0.01,-0.06,0.06
8.103662014007568,-0.01,-0.01,-0.05,0.05
8.116250991821289,-0.02,-0.01,-0.05,0.05
8.150345087051392,-0.01,-0.01,-0.06,0.06
8.150763034820557,-0.01,0.0,-0.07,0.07
8.151140213012695,-0.01,-0.01,-0.06,0.06
8.153027057647705,-0.01,-0.01,-0.06,0.06
8.163058280944824,-0.01,-0.01,-0.06,0.06
8.173088073730469,-0.01,0.0,-0.06,0.06
8.183111190795898,-0.01,0.0,-0.06,0.06
8.192861080169678,-0.01,0.0,-0.06,0.06
8.20292615890503,-0.01,-0.01,-0.06,0.06
8.215017318725586,-0.01,-0.01,-0.07,0.07
8.251406192779541,-0.02,-0.01,-0.07,0.07
8.25170111656189,-0.02,-0.01,-0.07,0.07
8.252147197723389,-0.03,0.0,-0.05,0.05
8.252650260925293,-0.02,0.0,-0.06,0.06
8.262676239013672,-0.01,-0.01,-0.06,0.06
8.272669315338135,-0.02,-0.01,-0.07,0.07
8.282595157623291,-0.02,-0.01,-0.06,0.06
8.292272090911865,-0.01,-0.01,-0.06,0.06
8.302501201629639,-0.01,-0.02,-0.06,0.06
8.314704179763794,-0.01,0.0,-0.05,0.05
8.322504043579102,-0.01,0.0,-0.06,0.06
8.352742195129395,-0.01,0.0,-0.06,0.06
8.353025197982788,-0.01,0.0,-0.06,0.06
8.353484153747559,-0.02,0.0,-0.07,0.07
8.362037181854248,-0.02,0.0,-0.06,0.06
8.371930122375488,-0.01,0.0,-0.06,0.06
8.381956100463867,-0.01,-0.02,-0.06,0.06
8.39181900024414,-0.02,-0.02,-0.06,0.06
8.401768207550049,-0.02,0.0,-0.06,0.06
8.413812160491943,-0.02,0.0,-0.06,0.06
8.421955108642578,-0.03,0.0,-0.07,0.07
8.451951026916504,-0.02,-0.01,-0.05,0.05
8.45237112045288,-0.01,-0.01,-0.07,0.07
8.45271611213684,-0.01,-0.01,-0.05,0.05
8.461530208587646,-0.02,-0.01,-0.07,0.07
8.471392154693604,-0.02,-0.01,-0.06,0.06
8.481504201889038,-0.01,-0.01,-0.07,0.07
8.491326093673706,-0.01,-0.01,-0.06,0.06
8.501407146453857,-0.02,-0.01,-0.06,0.06
8.513626098632812,-0.01,-0.01,-0.07,0.07
8.521403312683105,-0.01,-0.01,-0.05,0.05
8.552305221557617,-0.02,-0.01,-0.06,0.06
8.552699089050293,-0.02,-0.01,-0.07,0.07
8.553014278411865,-0.02,-0.01,-0.07,0.07
8.560869216918945,-0.02,-0.01,-0.07,0.07
8.57088327407837,-0.02,-0.01,-0.07,0.07
8.580905199050903,-0.02,-0.01,-0.06,0.06
8.590829133987427,-0.01,-0.01,-0.05,0.05
8.600951194763184,-0.01,-0.02,-0.06,0.06
8.613064289093018,-0.02,-0.01,-0.06,0.06
8.620913982391357,-0.01,-0.01,-0.07,0.07
8.654247283935547,-0.01,-0.01,-0.06,0.06
8.654683113098145,-0.01,0.0,-0.05,0.05
8.655123233795166,-0.02,-0.01,-0.06,0.06
8.660291194915771,-0.02,0.0,-0.06,0.06
8.670326232910156,-0.02,-0.01,-0.06,0.06
8.68027925491333,-0.02,0.0,-0.06,0.06
8.690159320831299,-0.02,-0.01,-0.06,0.06
8.70030403137207,-0.02,-0.01,-0.06,0.06
8.738057136535645,-0.02,-0.01,-0.07,0.07
8.738429069519043,-0.01,-0.01,-0.07,0.07
8.738752126693726,-0.02,-0.01,-0.07,0.07
8.739760160446167,-0.02,-0.01,-0.06,0.06
8.74985122680664,-0.02,0.0,-0.06,0.06
8.759756088256836,-0.02,-0.01,-0.06,0.06
8.769668102264404,-0.02,-0.01,-0.06,0.06
8.77965497970581,-0.02,0.0,-0.06,0.06
8.789726257324219,-0.02,0.0,-0.06,0.06
8.79973816871643,-0.01,0.0,-0.06,0.06
8.811939239501953,-0.02,0.0,-0.07,0.07
8.819679260253906,-0.01,-0.01,-0.07,0.07
8.854936122894287,-0.02,0.0,-0.07,0.07
8.855356216430664,-0.02,-0.01,-0.06,0.06
8.855678081512451,-0.02,0.0,-0.06,0.06
8.859029293060303,-0.02,-0.01,-0.06,0.06
8.869124174118042,-0.02,-0.01,-0.06,0.06
8.879089117050171,-0.02,0.0,-0.06,0.06
8.88908314704895,-0.01,-0.01,-0.06,0.06
8.898980140686035,-0.02,-0.01,-0.06,0.06
8.911206245422363,-0.01,-0.01,-0.07,0.07
8.91920018196106,-0.02,-0.01,-0.06,0.06
8.951947212219238,-0.01,0.0,-0.05,0.05
8.952369213104248,-0.01,-0.01,-0.06,0.06
8.952648162841797,-0.01,-0.01,-0.06,0.06
8.958498001098633,-0.01,-0.01,-0.06,0.06
8.968538284301758,-0.01,-0.01,-0.06,0.06
8.978614091873169,-0.01,0.0,-0.06,0.06
8.988625049591064,-0.02,-0.01,-0.07,0.07
8.99869418144226,-0.02,0.0,-0.06,0.06
9.011129140853882,-0.02,-0.01,-0.06,0.06
9.018385171890259,-0.02,-0.01,-0.06,0.06
9.052087306976318,-0.02,-0.01,-0.05,0.05
9.052481174468994,-0.02,-0.01,-0.06,0.06
9.052762031555176,-0.02,-0.01,-0.06,0.06
9.057911157608032,-0.01,-0.01,-0.06,0.06
9.068148136138916,-0.01,0.0,-0.06,0.06
9.078058242797852,-0.02,0.0,-0.07,0.07
9.087886095046997,-0.01,-0.01,-0.07,0.07
9.09815502166748,-0.02,0.0,-0.06,0.06
9.135496139526367,-0.02,0.0,-0.07,0.07
9.135909080505371,-0.01,-0.01,-0.07,0.07
9.136243104934692,-0.01,-0.01,-0.06,0.06
9.137404203414917,-0.02,0.0,-0.06,0.06
9.147427082061768,-0.02,0.0,-0.06,0.06
9.157447099685669,-0.02,0.0,-0.06,0.06
9.167607307434082,-0.01,-0.01,-0.06,0.06
9.177174091339111,-0.02,-0.01,-0.06,0.06
9.187379121780396,-0.02,0.0,-0.06,0.06
9.197644233703613,-0.01,-0.01,-0.07,0.07
9.238063097000122,-0.02,-0.01,-0.06,0.06
9.238495111465454,-0.03,-0.01,-0.05,0.05
9.238864183425903,-0.01,-0.01,-0.06,0.06
9.239240169525146,-0.02,-0.01,-0.07,0.07
9.246994018554688,-0.02,0.0,-0.06,0.06
9.2570641040802,-0.02,0.0,-0.07,0.07
9.266987085342407,-0.01,-0.01,-0.06,0.06
9.276832103729248,0.0,-0.01,-0.06,0.06
9.286955118179321,-0.01,0.0,-0.06,0.06
9.296634197235107,-0.01,0.0,-0.06,0.06
9.337329149246216,-0.01,-0.01,-0.06,0.06
9.33772325515747,-0.01,-0.01,-0.07,0.07
9.338086128234863,-0.01,-0.01,-0.06,0.06
9.338351249694824,-0.01,-0.01,-0.06,0.06
9.34634518623352,-0.02,0.0,-0.05,0.05
9.356321096420288,-0.02,-0.01,-0.05,0.05
9.366278171539307,-0.02,-0.01,-0.06,0.06
9.376015186309814,-0.02,-0.01,-0.06,0.06
9.386452198028564,-0.03,-0.01,-0.07,0.07
9.39634108543396,-0.02,0.0,-0.06,0.06
9.436267137527466,-0.01,-0.01,-0.06,0.06
9.436695098876953,-0.01,-0.01,-0.07,0.07
9.43709111213684,-0.01,0.0,-0.06,0.06
9.437404155731201,-0.01,-0.01,-0.06,0.06
9.44574499130249,-0.01,-0.01,-0.06,0.06
9.455770015716553,-0.01,-0.01,-0.06,0.06
9.465692043304443,-0.02,0.0,-0.06,0.06
9.475748062133789,-0.02,-0.01,-0.06,0.06
9.485611200332642,-0.02,-0.01,-0.06,0.06
9.495659112930298,-0.02,0.0,-0.06,0.06
9.509395122528076,-0.02,-0.01,-0.06,0.06
9.536626100540161,-0.02,0.0,-0.07,0.07
9.536937236785889,-0.02,0.0,-0.07,0.07
9.537318229675293,-0.02,-0.01,-0.06,0.06
9.544950008392334,-0.02,-0.01,-0.06,0.06
9.555135250091553,-0.02,-0.01,-0.06,0.06
9.56514024734497,-0.02,0.0,-0.06,0.06
9.575262069702148,-0.01,0.0,-0.06,0.06
9.585222244262695,-0.01,0.0,-0.07,0.07
9.59506607055664,-0.02,-0.01,-0.07,0.07
9.609154224395752,-0.01,0.0,-0.06,0.06
9.637194156646729,-0.01,0.0,-0.06,0.06
9.637484073638916,-0.01,0.0,-0.06,0.06
9.637927055358887,-0.02,0.0,-0.07,0.07
9.644613265991211,-0.01,0.0,-0.06,0.06
9.654642105102539,-0.02,0.0,-0.06,0.06
9.664475202560425,-0.01,-0.01,-0.06,0.06
9.67454719543457,-0.02,-0.01,-0.06,0.06
9.684481143951416,-0.02,-0.01,-0.06,0.06
9.6946120262146,-0.02,0.0,-0.07,0.07
9.707626104354858,-0.02,0.0,-0.06,0.06
9.736011981964111,-0.02,0.0,-0.07,0.07
9.736411094665527,-0.01,-0.01,-0.07,0.07
9.736796140670776,-0.01,0.0,-0.05,0.05
9.74430513381958,-0.01,0.0,-0.06,0.06
9.75412130355835,0.0,0.0,-0.06,0.06
9.764008045196533,-0.01,0.0,-0.07,0.07
9.774112224578857,-0.01,0.0,-0.06,0.06
9.784178256988525,-0.02,-0.01,-0.07,0.07
9.794390201568604,-0.02,-0.01,-0.07,0.07
9.807866096496582,-0.02,0.0,-0.06,0.06
9.837177276611328,-0.02,0.0,-0.06,0.06
9.837534189224243,-0.02,0.0,-0.06,0.06
9.837988138198853,-0.02,-0.01,-0.06,0.06
9.843408107757568,-0.02,-0.01,-0.07,0.07
9.853565216064453,-0.01,0.0,-0.06,0.06
9.863440990447998,-0.01,-0.01,-0.06,0.06
9.873375177383423,-0.01,-0.01,-0.06,0.06
9.883364200592041,-0.01,0.0,-0.06,0.06
9.894105195999146,-0.02,0.0,-0.07,0.07
9.906771183013916,-0.01,-0.01,-0.06,0.06
9.937672138214111,-0.02,0.0,-0.06,0.06
9.938007116317749,-0.02,0.0,-0.06,0.06
9.93827199935913,-0.02,0.0,-0.06,0.06
9.943156242370605,-0.03,-0.01,-0.05,0.05
9.953113079071045,-0.02,0.0,-0.06,0.06
9.962724208831787,-0.02,0.0,-0.06,0.06
9.97287917137146,-0.02,-0.01,-0.06,0.06
9.982707977294922,-0.01,-0.01,-0.06,0.06
9.992798089981079,-0.03,-0.02,-0.06,0.06
10.00657320022583,-0.02,-0.01,-0.07,0.07
10.03794002532959,-0.02,0.0,-0.06,0.06
10.038393020629883,-0.02,0.0,-0.07,0.07
10.038868188858032,-0.01,0.0,-0.06,0.06
10.042204141616821,-0.01,0.0,-0.06,0.06
10.052496194839478,-0.02,-0.01,-0.07,0.07
10.062108039855957,-0.01,0.0,-0.07,0.07
10.072394132614136,-0.02,0.0,-0.06,0.06
10.082070112228394,-0.01,0.0,-0.06,0.06
10.093054294586182,-0.01,-0.01,-0.07,0.07
10.105236053466797,-0.02,0.0,-0.07,0.07
10.138094186782837,-0.01,0.0,-0.07,0.07
10.138619184494019,-0.02,0.0,-0.05,0.05
10.139027118682861,-0.02,-0.01,-0.05,0.05
10.141643047332764,-0.01,-0.01,-0.06,0.06
10.151634216308594,-0.01,-0.01,-0.06,0.06
10.161693096160889,-0.02,0.0,-0.06,0.06
10.171735286712646,-0.02,0.0,-0.07,0.07
10.181730270385742,-0.01,0.0,-0.06,0.06
10.192156314849854,-0.01,-0.01,-0.06,0.06
10.204874992370605,-0.01,-0.01,-0.07,0.07
10.23854398727417,-0.01,0.0,-0.06,0.06
10.239082098007202,-0.02,0.0,-0.07,0.07
10.239451169967651,-0.02,0.0,-0.07,0.07
10.241079092025757,-0.01,-0.01,-0.07,0.07
10.251150131225586,-0.01,0.0,-0.07,0.07
10.2610502243042,-0.01,-0.01,-0.07,0.07
10.2712881565094,-0.01,0.0,-0.07,0.07
10.28124213218689,-0.01,-0.01,-0.06,0.06
10.290767192840576,-0.01,-0.01,-0.06,0.06
10.304232120513916,-0.02,0.0,-0.06,0.06
10.31105899810791,-0.02,-0.01,-0.06,0.06
10.336964130401611,-0.01,-0.01,-0.06,0.06
10.33767819404602,-0.01,0.0,-0.06,0.06
10.340556144714355,-0.01,0.0,-0.06,0.06
10.35049819946289,-0.02,0.0,-0.06,0.06
10.360596179962158,-0.01,-0.01,-0.07,0.07
10.370445251464844,-0.01,-0.01,-0.07,0.07
10.380561113357544,-0.01,0.0,-0.06,0.06
10.390984058380127,-0.01,0.0,-0.07,0.07
10.403979301452637,-0.02,-0.01,-0.05,0.05
10.410613059997559,-0.02,-0.01,-0.06,0.06
10.437430143356323,-0.02,-0.01,-0.06,0.06
10.437946319580078,-0.01,0.0,-0.06,0.06
10.440040111541748,-0.02,0.0,-0.07,0.07
10.449871063232422,-0.02,-0.01,-0.06,0.06
10.459944248199463,-0.02,0.0,-0.06,0.06
10.470014095306396,-0.01,-0.01,-0.06,0.06
10.479737281799316,-0.02,-0.01,-0.06,0.06
10.489859104156494,-0.02,0.0,-0.06,0.06
10.502784252166748,-0.02,0.0,-0.06,0.06
10.510210990905762,-0.01,0.0,-0.07,0.07
10.53947114944458,-0.02,-0.01,-0.06,0.06
10.53990912437439,-0.01,-0.01,-0.06,0.06
10.540322303771973,-0.01,-0.01,-0.07,0.07
10.549415111541748,-0.01,0.0,-0.06,0.06
10.55937910079956,-0.01,0.0,-0.05,0.05
10.569447040557861,-0.01,0.0,-0.06,0.06
10.579780101776123,-0.01,0.0,-0.07,0.07
10.589140176773071,-0.01,0.0,-0.07,0.07
10.602628231048584,-0.02,0.0,-0.06,0.06
10.6092209815979,-0.02,0.0,-0.07,0.07
10.638298988342285,-0.01,0.0,-0.06,0.06
10.6388521194458,-0.02,-0.01,-0.05,0.05
10.639326095581055,-0.02,0.0,-0.06,0.06
10.648797988891602,-0.01,0.0,-0.07,0.07
10.658911228179932,-0.01,0.0,-0.06,0.06
10.6687912940979,-0.01,0.0,-0.06,0.06
10.678560256958008,-0.01,0.0,-0.06,0.06
10.688497066497803,-0.01,0.0,-0.06,0.06
10.72589111328125,-0.01,0.0,-0.06,0.06
10.726546287536621,-0.01,-0.01,-0.07,0.07
10.72690200805664,-0.01,-0.01,-0.07,0.07
10.72832727432251,-0.02,0.0,-0.07,0.07
10.738371133804321,-0.02,0.0,-0.05,0.05
10.748201131820679,0.0,-0.01,-0.05,0.05
10.75840425491333,-0.02,-0.01,-0.07,0.07
10.768233299255371,-0.02,0.0,-0.06,0.06
10.778159141540527,-0.02,-0.01,-0.06,0.06
10.788953304290771,-0.03,0.0,-0.06,0.06
10.801547050476074,-0.02,0.0,-0.06,0.06
10.808534145355225,-0.02,-0.01,-0.06,0.06
10.839477062225342,-0.01,-0.01,-0.06,0.06
10.839994192123413,-0.02,-0.01,-0.07,0.07
10.84052324295044,-0.01,0.0,-0.06,0.06
10.847440242767334,-0.01,-0.01,-0.06,0.06
10.857656002044678,-0.01,0.0,-0.07,0.07
10.867576122283936,-0.01,0.0,-0.06,0.06
10.877552032470703,-0.01,0.0,-0.07,0.07
10.887543201446533,-0.01,-0.01,-0.06,0.06
10.901817321777344,-0.02,-0.01,-0.05,0.05
10.907796144485474,-0.02,0.0,-0.06,0.06
10.93912410736084,-0.02,-0.01,-0.06,0.06
10.939562320709229,-0.01,-0.01,-0.06,0.06
10.94012713432312,-0.02,0.0,-0.07,0.07
10.947502136230469,-0.02,0.0,-0.07,0.07
10.956988096237183,-0.02,0.0,-0.07,0.07
10.966996192932129,-0.01,0.0,-0.06,0.06
10.97696828842163,-0.01,0.0,-0.06,0.06
10.987173080444336,-0.02,0.0,-0.07,0.07
11.023158073425293,-0.01,-0.01,-0.07,0.07
11.023632049560547,0.0,0.0,-0.06,0.06
11.023905277252197,0.0,0.0,-0.06,0.06
11.026393175125122,-0.01,-0.01,-0.06,0.06
11.036530017852783,-0.02,-0.01,-0.06,0.06
11.046468257904053,-0.01,0.0,-0.06,0.06
11.056498050689697,-0.01,0.0,-0.06,0.06
11.066590309143066,-0.02,-0.01,-0.06,0.06
11.076407194137573,-0.02,0.0,-0.06,0.06
11.087582111358643,-0.01,-0.01,-0.07,0.07
11.126405239105225,0.0,0.0,-0.06,0.06
11.1269052028656,-0.01,-0.01,-0.06,0.06
11.127304077148438,-0.01,0.0,-0.06,0.06
11.127654075622559,-0.01,0.0,-0.06,0.06
11.135863304138184,-0.01,0.0,-0.06,0.06
11.146047115325928,0.0,-0.01,-0.05,0.05
11.156100273132324,-0.01,-0.01,-0.06,0.06
11.165799140930176,-0.01,0.0,-0.06,0.06
11.175853252410889,0.0,0.0,-0.06,0.06
11.186451196670532,-0.01,-0.01,-0.06,0.06
11.226997137069702,-0.02,0.0,-0.06,0.06
11.227484226226807,-0.01,-0.01,-0.06,0.06
11.227890968322754,-0.02,-0.01,-0.06,0.06
11.228330135345459,-0.01,0.0,-0.06,0.06
11.23537015914917,-0.02,0.0,-0.06,0.06
11.24541425704956,-0.01,-0.01,-0.07,0.07
11.255338191986084,-0.01,0.0,-0.06,0.06
11.265181064605713,-0.01,0.0,-0.06,0.06
11.27511715888977,-0.01,0.0,-0.06,0.06
11.285735130310059,-0.02,0.0,-0.06,0.06
11.321455001831055,-0.01,0.0,-0.06,0.06
11.322346210479736,-0.01,0.0,-0.08,0.08
11.322772979736328,-0.01,0.0,-0.06,0.06
11.324662208557129,-0.01,-0.01,-0.06,0.06
11.334686279296875,-0.01,0.0,-0.06,0.06
11.344717025756836,-0.01,0.0,-0.07,0.07
11.354602098464966,-0.01,0.0,-0.05,0.05
11.3651762008667,-0.02,0.0,-0.07,0.07
11.374746322631836,-0.02,-0.01,-0.06,0.06
11.384847164154053,-0.02,-0.01,-0.06,0.06
11.398175239562988,-0.03,0.0,-0.06,0.06
11.425526142120361,-0.01,0.0,-0.06,0.06
11.425945281982422,-0.02,0.0,-0.06,0.06
11.426483154296875,-0.01,-0.01,-0.07,0.07
11.434215068817139,-0.01,-0.01,-0.06,0.06
11.444147109985352,-0.01,-0.01,-0.06,0.06
11.454032182693481,-0.01,0.0,-0.06,0.06
11.464124202728271,-0.01,-0.01,-0.06,0.06
11.474115133285522,-0.01,0.0,-0.06,0.06
11.484450101852417,0.0,0.0,-0.06,0.06
11.49729609489441,-0.01,0.0,-0.06,0.06
11.526337146759033,-0.02,-0.01,-0.07,0.07
11.526807308197021,-0.02,-0.01,-0.06,0.06
11.527276992797852,-0.02,0.0,-0.07,0.07
11.533607006072998,-0.03,-0.01,-0.06,0.06
11.543667316436768,-0.02,0.0,-0.07,0.07
11.55361008644104,-0.02,-0.01,-0.06,0.06
11.563454151153564,-0.02,-0.01,-0.06,0.06
11.573622226715088,-0.01,0.0,-0.07,0.07
11.583753108978271,-0.01,-0.01,-0.07,0.07
11.596668243408203,-0.01,0.0,-0.06,0.06
11.623684167861938,0.0,0.0,-0.07,0.07
11.624939203262329,-0.02,0.0,-0.06,0.06
11.625362157821655,-0.01,0.0,-0.06,0.06
11.640225172042847,-0.01,-0.01,-0.06,0.06
11.642906188964844,-0.01,0.0,-0.06,0.06
11.652778148651123,-0.01,0.0,-0.06,0.06
11.663096189498901,-0.02,-0.01,-0.07,0.07
11.67287015914917,-0.02,-0.01,-0.07,0.07
11.68319320678711,-0.02,-0.01,-0.07,0.07
11.696290016174316,-0.02,-0.01,-0.06,0.06
11.727277278900146,-0.03,-0.01,-0.06,0.06
11.727761268615723,-0.02,0.0,-0.06,0.06
11.728244304656982,-0.01,0.0,-0.07,0.07
11.732707023620605,-0.01,0.0,-0.06,0.06
11.742438316345215,-0.01,0.0,-0.06,0.06
11.752156257629395,-0.01,0.0,-0.06,0.06
11.76229214668274,-0.01,0.0,-0.06,0.06
11.772264003753662,-0.01,0.0,-0.06,0.06
11.782917022705078,0.0,0.0,-0.06,0.06
11.795392036437988,-0.01,0.0,-0.06,0.06
11.827296257019043,-0.01,0.0,-0.07,0.07
11.827744007110596,-0.01,0.0,-0.06,0.06
11.82821798324585,-0.02,0.0,-0.05,0.05
11.831797122955322,-0.02,0.0,-0.06,0.06
11.841969013214111,-0.01,-0.01,-0.07,0.07
11.851691246032715,-0.02,0.0,-0.06,0.06
11.86177396774292,-0.02,0.0,-0.07,0.07
11.871771097183228,-0.01,0.0,-0.07,0.07
11.882651090621948,-0.02,0.0,-0.06,0.06
11.89516019821167,-0.01,-0.01,-0.06,0.06
11.927281141281128,-0.02,0.0,-0.06,0.06
11.927642107009888,-0.02,0.0,-0.06,0.06
11.928040027618408,-0.01,0.0,-0.06,0.06
11.931090116500854,-0.01,0.0,-0.06,0.06
11.941228151321411,-0.01,-0.01,-0.06,0.06
11.951256275177002,-0.01,-0.01,-0.07,0.07
11.96126914024353,-0.01,-0.01,-0.06,0.06
11.971168041229248,-0.02,0.0,-0.06,0.06
11.981763124465942,-0.02,-0.01,-0.06,0.06
11.994359016418457,-0.01,-0.01,-0.06,0.06
12.026206016540527,-0.01,0.0,-0.06,0.06
12.026782989501953,-0.02,-0.01,-0.07,0.07
12.027254104614258,-0.02,0.0,-0.06,0.06
12.030534267425537,-0.01,0.0,-0.06,0.06
12.040568113327026,-0.01,0.0,-0.06,0.06
12.0506010055542,-0.02,0.0,-0.05,0.05
12.060755252838135,-0.01,0.0,-0.07,0.07
12.070528030395508,-0.01,-0.01,-0.06,0.06
12.081199169158936,-0.01,0.0,-0.07,0.07
12.093197107315063,-0.01,0.0,-0.07,0.07
12.127356052398682,-0.01,-0.01,-0.06,0.06
12.127779006958008,-0.01,0.0,-0.06,0.06
12.12817096710205,-0.01,0.01,-0.06,0.06
12.129974126815796,-0.01,-0.01,-0.07,0.07
12.139992237091064,-0.01,-0.01,-0.07,0.07
12.150306224822998,-0.02,0.0,-0.06,0.06
12.160081148147583,-0.01,0.0,-0.06,0.06
12.169759273529053,-0.01,0.0,-0.06,0.06
12.180397987365723,-0.02,0.0,-0.06,0.06
12.192946195602417,-0.01,-0.01,-0.07,0.07
12.200291156768799,-0.02,0.0,-0.07,0.07
12.22775912284851,-0.02,-0.01,-0.06,0.06
12.228270053863525,-0.01,-0.01,-0.07,0.07
12.229505062103271,0.0,0.0,-0.07,0.07
12.239505290985107,-0.01,0.0,-0.07,0.07
12.249439239501953,-0.01,0.0,-0.06,0.06
12.259445190429688,0.0,0.0,-0.06,0.06
12.269408226013184,-0.01,0.0,-0.06,0.06
12.27996015548706,-0.01,0.0,-0.07,0.07
12.29255723953247,-0.01,-0.01,-0.06,0.06
12.29929518699646,-0.01,-0.01,-0.07,0.07
12.32738709449768,0.0,0.0,-0.07,0.07
12.327822208404541,-0.01,0.0,-0.07,0.07
12.328832149505615,-0.01,-0.01,-0.07,0.07
12.338998317718506,-0.01,-0.01,-0.07,0.07
12.34888505935669,-0.02,-0.01,-0.06,0.06
12.358919143676758,-0.01,0.0,-0.06,0.06
12.36883020401001,-0.02,-0.01,-0.06,0.06
12.379539012908936,-0.01,0.0,-0.06,0.06
12.39141321182251,-0.01,0.0,-0.06,0.06
12.39955997467041,-0.01,-0.01,-0.07,0.07
12.427462100982666,-0.01,0.0,-0.05,0.05
12.427943229675293,-0.01,0.0,-0.06,0.06
12.428430080413818,-0.01,-0.01,-0.07,0.07
12.43834400177002,-0.02,0.0,-0.06,0.06
12.44816517829895,-0.01,0.0,-0.06,0.06
12.458407163619995,-0.02,0.0,-0.06,0.06
12.470702171325684,-0.02,0.0,-0.06,0.06
12.481703281402588,-0.01,0.0,-0.07,0.07
12.493854999542236,-0.01,-0.01,-0.06,0.06
12.500758171081543,-0.01,-0.01,-0.06,0.06
12.527472019195557,-0.01,0.0,-0.06,0.06
12.527862071990967,-0.01,0.0,-0.06,0.06
12.530400276184082,-0.02,-0.01,-0.07,0.07
12.54021406173706,-0.02,-0.01,-0.07,0.07
12.55029010772705,-0.01,-0.01,-0.06,0.06
12.56016206741333,-0.01,-0.01,-0.06,0.06
12.57019329071045,-0.02,-0.01,-0.06,0.06
12.580785274505615,-0.01,0.0,-0.06,0.06
12.593297004699707,-0.02,0.0,-0.06,0.06
12.600082159042358,-0.01,0.0,-0.06,0.06
12.626382112503052,-0.02,0.0,-0.06,0.06
12.627148151397705,-0.02,0.0,-0.06,0.06
12.629666090011597,-0.01,0.0,-0.05,0.05
12.64408826828003,-0.02,-0.01,-0.06,0.06
12.6497061252594,-0.01,0.0,-0.06,0.06
12.659703254699707,-0.01,0.0,-0.06,0.06
12.669554233551025,-0.01,-0.01,-0.06,0.06
12.680374145507812,-0.01,0.0,-0.07,0.07
12.692837238311768,-0.02,-0.01,-0.06,0.06
12.69969129562378,-0.01,-0.01,-0.05,0.05
12.727935314178467,-0.01,-0.01,-0.07,0.07
12.728394985198975,-0.01,-0.01,-0.06,0.06
12.729247093200684,-0.01,0.0,-0.07,0.07
12.739071130752563,-0.01,0.0,-0.07,0.07
12.749014139175415,-0.02,0.0,-0.07,0.07
12.759202003479004,-0.01,0.0,-0.06,0.06
12.76901912689209,-0.01,0.0,-0.07,0.07
12.779928207397461,-0.02,-0.01,-0.06,0.06
12.792245149612427,-0.01,0.0,-0.06,0.06
12.799066066741943,-0.01,0.0,-0.07,0.07
12.827649116516113,-0.02,-0.01,-0.07,0.07
12.828009128570557,-0.02,-0.01,-0.07,0.07
12.82841420173645,-0.02,0.0,-0.07,0.07
12.838443279266357,-0.02,0.0,-0.07,0.07
12.848580121994019,-0.01,-0.01,-0.07,0.07
12.85869812965393,-0.01,0.0,-0.05,0.05
12.868555068969727,0.0,-0.01,-0.06,0.06
12.878467082977295,-0.01,0.0,-0.06,0.06
12.891609191894531,-0.01,0.0,-0.07,0.07
12.898577213287354,-0.01,-0.01,-0.07,0.07
12.92732310295105,-0.02,-0.01,-0.06,0.06
12.92836332321167,-0.01,-0.01,-0.06,0.06
12.928774118423462,-0.01,0.0,-0.06,0.06
12.937721252441406,-0.02,0.0,-0.06,0.06
12.947922229766846,-0.02,0.0,-0.07,0.07
12.957939147949219,-0.02,-0.01,-0.07,0.07
12.967847108840942,-0.02,0.0,-0.07,0.07
12.977856159210205,-0.02,-0.01,-0.06,0.06
12.99086618423462,-0.02,-0.01,-0.06,0.06
12.998311042785645,-0.01,0.0,-0.06,0.06
13.028487205505371,-0.02,0.0,-0.06,0.06
13.02891206741333,-0.02,-0.01,-0.06,0.06
13.029309272766113,-0.01,-0.01,-0.06,0.06
13.037215232849121,-0.01,0.0,-0.06,0.06
13.047459125518799,0.0,-0.01,-0.06,0.06
13.05752420425415,-0.01,0.0,-0.06,0.06
13.067443132400513,-0.02,0.0,-0.06,0.06
13.077181100845337,-0.01,0.0,-0.06,0.06
13.090332984924316,-0.01,0.0,-0.06,0.06
13.09778118133545,-0.01,-0.01,-0.07,0.07
13.130543231964111,-0.01,-0.01,-0.07,0.07
13.131086111068726,-0.02,-0.01,-0.06,0.06
13.131497144699097,-0.03,-0.01,-0.06,0.06
13.136710166931152,-0.02,-0.01,-0.06,0.06
13.14680004119873,-0.01,0.0,-0.06,0.06
13.156898975372314,-0.02,-0.01,-0.07,0.07
13.166597127914429,-0.02,-0.01,-0.06,0.06
13.17667007446289,-0.01,-0.01,-0.06,0.06
13.190555095672607,0.0,-0.01,-0.07,0.07
13.197210311889648,0.0,0.0,-0.07,0.07
13.229257106781006,-0.01,0.0,-0.07,0.07
13.229823112487793,0.0,-0.01,-0.06,0.06
13.230277061462402,-0.01,0.0,-0.06,0.06
13.236008167266846,-0.01,0.0,-0.06,0.06
13.246265172958374,-0.02,-0.01,-0.07,0.07
13.255928039550781,-0.02,-0.01,-0.05,0.05
13.266205310821533,-0.02,0.0,-0.06,0.06
13.275999069213867,-0.02,0.0,-0.06,0.06
13.312880039215088,-0.01,-0.01,-0.06,0.06
13.31333303451538,-0.02,-0.01,-0.06,0.06
13.31372618675232,-0.01,-0.01,-0.06,0.06
13.31568717956543,-0.01,0.0,-0.06,0.06
13.325630187988281,-0.01,-0.01,-0.06,0.06
13.33554220199585,-0.01,-0.01,-0.07,0.07
13.345853090286255,-0.02,0.0,-0.06,0.06
13.35543417930603,-0.01,0.0,-0.06,0.06
13.365524291992188,0.0,-0.01,-0.06,0.06
13.376196146011353,-0.02,-0.01,-0.06,0.06
13.41330623626709,-0.02,-0.01,-0.06,0.06
13.413660049438477,-0.02,-0.01,-0.06,0.06
13.41411018371582,-0.01,-0.01,-0.06,0.06
13.415282249450684,-0.02,-0.01,-0.05,0.05
13.42502498626709,-0.02,0.0,-0.05,0.05
13.43508529663086,-0.03,-0.01,-0.06,0.06
13.445167064666748,-0.02,-0.02,-0.06,0.06
13.454897165298462,0.0,-0.02,-0.06,0.06
13.465579986572266,-0.01,0.0,-0.06,0.06
13.475478172302246,-0.01,-0.01,-0.06,0.06
13.515201091766357,-0.01,-0.01,-0.06,0.06
13.515758037567139,0.0,-0.01,-0.07,0.07
13.516242027282715,-0.02,-0.01,-0.05,0.05
13.51668119430542,-0.02,-0.01,-0.06,0.06
13.52439022064209,-0.02,-0.01,-0.06,0.06
13.53446912765503,-0.02,-0.01,-0.07,0.07
13.544576168060303,-0.02,-0.01,-0.06,0.06
13.55436110496521,-0.02,-0.01,-0.06,0.06
13.56442928314209,-0.02,0.0,-0.05,0.05
13.575160026550293,-0.02,-0.01,-0.06,0.06
13.613800048828125,-0.01,0.0,-0.06,0.06
13.614274024963379,-0.02,-0.01,-0.06,0.06
13.61475419998169,0.0,-0.01,-0.07,0.07
13.61528205871582,-0.01,0.0,-0.06,0.06
13.62380599975586,-0.01,0.0,-0.06,0.06
13.633775234222412,0.0,-0.01,-0.06,0.06
13.643949031829834,0.0,0.0,-0.06,0.06
13.653881072998047,-0.01,-0.01,-0.06,0.06
13.663738250732422,-0.01,0.0,-0.06,0.06
13.67451524734497,-0.02,0.0,-0.05,0.05
13.687247276306152,-0.02,-0.01,-0.06,0.06
13.712093114852905,-0.02,0.0,-0.07,0.07
13.713053226470947,-0.02,0.0,-0.05,0.05
13.713536262512207,-0.02,-0.01,-0.06,0.06
13.727500200271606,-0.01,0.0,-0.06,0.06
13.733290195465088,-0.01,-0.01,-0.07,0.07
13.7430419921875,-0.01,-0.01,-0.07,0.07
13.753350257873535,-0.01,0.0,-0.06,0.06
13.76310920715332,-0.01,0.0,-0.06,0.06
13.774192094802856,-0.02,-0.01,-0.06,0.06
13.786128044128418,-0.01,0.0,-0.06,0.06
13.811686992645264,-0.01,0.0,-0.05,0.05
13.812793254852295,-0.02,-0.01,-0.06,0.06
13.813233137130737,-0.01,-0.01,-0.06,0.06
13.82258415222168,-0.02,-0.01,-0.06,0.06
13.832617282867432,-0.02,-0.01,-0.06,0.06
13.84263801574707,-0.01,0.0,-0.06,0.06
13.852632999420166,-0.02,0.0,-0.06,0.06
13.862555027008057,-0.02,-0.01,-0.06,0.06
13.873169183731079,-0.02,-0.01,-0.07,0.07
13.886747121810913,-0.02,0.0,-0.06,0.06
13.914276123046875,-0.01,0.0,-0.06,0.06
13.91471529006958,-0.01,-0.01,-0.06,0.06
13.915049076080322,-0.01,-0.01,-0.06,0.06
13.922046184539795,0.0,-0.01,-0.06,0.06
13.93196725845337,0.0,0.0,-0.06,0.06
13.94226598739624,-0.01,-0.01,-0.07,0.07
13.952202320098877,0.0,-0.01,-0.06,0.06
13.963029146194458,-0.01,0.0,-0.07,0.07
13.974119186401367,-0.02,-0.01,-0.06,0.06
13.985454082489014,-0.01,-0.01,-0.06,0.06
14.014019012451172,-0.01,-0.01,-0.06,0.06
14.014523029327393,-0.02,-0.02,-0.06,0.06
14.014869213104248,-0.02,-0.02,-0.06,0.06
14.021529197692871,-0.01,-0.01,-0.06,0.06
14.031519174575806,-0.01,-0.01,-0.07,0.07
14.041668176651001,-0.01,-0.01,-0.06,0.06
14.051484107971191,-0.01,0.0,-0.06,0.06
14.062029123306274,-0.01,-0.01,-0.06,0.06
14.071798086166382,-0.01,-0.01,-0.05,0.05
14.084567070007324,-0.01,-0.01,-0.05,0.05
14.11391305923462,-0.01,0.0,-0.06,0.06
14.115122318267822,-0.02,-0.01,-0.07,0.07
14.115476131439209,-0.02,-0.01,-0.07,0.07
14.120795249938965,-0.02,-0.01,-0.07,0.07
14.131192207336426,-0.01,-0.01,-0.06,0.06
14.141026973724365,-0.02,-0.01,-0.05,0.05
14.15086317062378,-0.01,-0.01,-0.05,0.05
14.160942077636719,-0.01,-0.01,-0.07,0.07
14.171744108200073,0.0,-0.01,-0.06,0.06
14.184816122055054,-0.02,-0.01,-0.06,0.06
14.216001987457275,-0.01,-0.01,-0.06,0.06
14.216361045837402,-0.01,-0.01,-0.06,0.06
14.216691017150879,-0.01,-0.01,-0.06,0.06
14.220322132110596,-0.01,-0.01,-0.06,0.06
14.230387210845947,-0.01,-0.01,-0.07,0.07
14.240284204483032,-0.02,-0.01,-0.07,0.07
14.250429153442383,-0.01,-0.01,-0.06,0.06
14.260828018188477,-0.01,-0.01,-0.06,0.06
14.270808219909668,0.0,-0.01,-0.06,0.06
14.283713102340698,0.0,-0.01,-0.05,0.05
14.315515995025635,-0.02,0.0,-0.06,0.06
14.315958023071289,-0.02,0.0,-0.05,0.05
14.316416263580322,-0.02,-0.01,-0.07,0.07
14.319777011871338,0.0,-0.01,-0.07,0.07
14.329920291900635,-0.02,-0.01,-0.06,0.06
14.340116024017334,-0.02,0.0,-0.05,0.05
14.34991717338562,-0.01,-0.01,-0.07,0.07
14.359463214874268,-0.01,-0.01,-0.07,0.07
14.370658159255981,-0.02,-0.01,-0.06,0.06
14.383018970489502,-0.02,0.0,-0.07,0.07
14.416476249694824,-0.01,-0.01,-0.07,0.07
14.416835308074951,-0.01,-0.01,-0.07,0.07
14.417315006256104,-0.02,-0.01,-0.05,0.05
14.419202089309692,-0.02,-0.01,-0.06,0.06
14.429125308990479,-0.01,-0.01,-0.06,0.06
14.439157009124756,-0.01,-0.01,-0.06,0.06
14.44934606552124,-0.02,0.0,-0.06,0.06
14.459227085113525,-0.02,-0.01,-0.07,0.07
14.470005989074707,-0.01,-0.01,-0.07,0.07
14.483320236206055,-0.01,0.0,-0.06,0.06
14.489771127700806,-0.01,-0.01,-0.06,0.06
14.51648211479187,-0.02,-0.01,-0.05,0.05
14.51698112487793,-0.02,0.0,-0.06,0.06
14.518757104873657,-0.02,-0.01,-0.07,0.07
14.528563976287842,-0.02,-0.01,-0.07,0.07
14.538838148117065,-0.01,-0.01,-0.06,0.06
14.548578262329102,-0.01,-0.01,-0.06,0.06
14.558412075042725,-0.01,-0.01,-0.06,0.06
14.569314002990723,-0.02,0.0,-0.06,0.06
14.582129001617432,-0.01,-0.01,-0.05,0.05
14.588531970977783,-0.01,-0.01,-0.07,0.07
14.615046977996826,0.0,-0.01,-0.07,0.07
14.615808010101318,-0.01,-0.01,-0.06,0.06
14.618154048919678,-0.01,0.0,-0.07,0.07
14.632167100906372,-0.01,-0.01,-0.06,0.06
14.638074159622192,-0.01,-0.01,-0.05,0.05
14.648230075836182,-0.02,-0.01,-0.06,0.06
14.657852172851562,-0.01,-0.01,-0.06,0.06
14.668671131134033,-0.01,-0.01,-0.07,0.07
14.680764198303223,-0.01,-0.01,-0.07,0.07
14.688281059265137,-0.01,-0.01,-0.06,0.06
14.715492248535156,-0.01,-0.01,-0.06,0.06
14.716022968292236,-0.01,0.0,-0.04,0.04
14.717447280883789,-0.01,-0.01,-0.06,0.06
14.727336168289185,-0.01,-0.01,-0.06,0.06
14.737576007843018,-0.02,-0.01,-0.07,0.07
14.747400283813477,-0.01,-0.01,-0.07,0.07
14.7574782371521,-0.02,-0.01,-0.07,0.07
14.76815915107727,-0.02,-0.01,-0.05,0.05
14.780691146850586,-0.02,-0.01,-0.05,0.05
14.788104057312012,-0.01,0.0,-0.06,0.06
14.81733512878418,-0.02,-0.01,-0.07,0.07
14.817772150039673,-0.03,-0.01,-0.07,0.07
14.818167209625244,-0.02,-0.01,-0.07,0.07
14.82701301574707,-0.01,-0.01,-0.06,0.06
14.8370041847229,-0.01,-0.01,-0.05,0.05
14.846909999847412,-0.01,0.0,-0.05,0.05
14.856804132461548,-0.01,-0.01,-0.05,0.05
14.867670059204102,0.0,-0.01,-0.06,0.06
14.879609107971191,0.0,-0.01,-0.07,0.07
14.887152194976807,-0.01,-0.01,-0.07,0.07
14.917438983917236,-0.01,-0.01,-0.06,0.06
14.917894124984741,-0.01,-0.01,-0.05,0.05
14.918315172195435,-0.01,-0.01,-0.06,0.06
14.926311016082764,-0.02,0.0,-0.05,0.05
14.936244010925293,-0.02,-0.01,-0.06,0.06
14.94649600982666,-0.01,-0.02,-0.07,0.07
14.956292152404785,-0.02,-0.01,-0.06,0.06
14.966894149780273,0.0,-0.01,-0.07,0.07
14.979796171188354,-0.01,-0.01,-0.05,0.05
14.986212253570557,-0.01,-0.01,-0.05,0.05
15.015968322753906,-0.01,-0.01,-0.05,0.05
15.016467094421387,-0.01,-0.01,-0.06,0.06
15.017346143722534,-0.01,0.0,-0.06,0.06
15.025626182556152,-0.01,-0.01,-0.07,0.07
15.035702228546143,0.0,-0.01,-0.07,0.07
15.04569411277771,-0.01,-0.01,-0.06,0.06
15.05570125579834,-0.02,-0.01,-0.05,0.05
15.065750122070312,-0.01,-0.02,-0.06,0.06
15.080010175704956,-0.01,-0.02,-0.06,0.06
15.085764169692993,-0.02,-0.01,-0.06,0.06
15.11543321609497,-0.03,0.0,-0.06,0.06
15.11634111404419,-0.02,-0.01,-0.05,0.05
15.11687707901001,-0.01,-0.02,-0.06,0.06
15.13165807723999,-0.01,0.0,-0.06,0.06
15.134885311126709,-0.01,0.0,-0.06,0.06
15.145158290863037,-0.01,-0.01,-0.06,0.06
15.15507698059082,0.0,-0.01,-0.06,0.06
15.164857149124146,0.0,-0.01,-0.06,0.06
15.200554132461548,-0.01,-0.01,-0.07,0.07
15.201066970825195,0.0,-0.01,-0.05,0.05
15.201467990875244,-0.02,-0.01,-0.05,0.05
15.204705238342285,-0.02,0.0,-0.06,0.06
15.214627265930176,-0.02,-0.02,-0.07,0.07
15.22479510307312,-0.02,-0.01,-0.08,0.08
15.234619140625,-0.02,-0.01,-0.07,0.07
15.244574069976807,-0.01,-0.01,-0.06,0.06
15.254930973052979,-0.01,-0.01,-0.06,0.06
15.264957189559937,-0.02,-0.01,-0.06,0.06
15.302845001220703,-0.02,-0.01,-0.06,0.06
15.303315162658691,-0.01,-0.01,-0.06,0.06
15.30378007888794,0.0,0.0,-0.06,0.06
15.304218292236328,0.0,0.0,-0.07,0.07
15.31415319442749,-0.01,-0.01,-0.06,0.06
15.32416820526123,-0.01,0.0,-0.05,0.05
15.334153175354004,-0.01,-0.02,-0.06,0.06
15.34381628036499,-0.01,-0.01,-0.06,0.06
15.354976177215576,-0.02,0.0,-0.05,0.05
15.364649295806885,-0.02,-0.01,-0.06,0.06
15.402729988098145,-0.02,-0.01,-0.07,0.07
15.4032301902771,-0.01,-0.01,-0.06,0.06
15.403693199157715,-0.02,0.0,-0.06,0.06
15.404151201248169,-0.02,-0.01,-0.07,0.07
15.413469314575195,-0.01,0.0,-0.07,0.07
15.423469066619873,-0.01,-0.01,-0.06,0.06
15.433519124984741,0.0,-0.01,-0.05,0.05
15.443268299102783,-0.01,0.0,-0.05,0.05
15.454384088516235,0.0,-0.01,-0.06,0.06
15.463956117630005,-0.01,-0.01,-0.07,0.07
15.502776145935059,-0.01,-0.01,-0.06,0.06
15.503226280212402,-0.01,-0.01,-0.05,0.05
15.503627300262451,-0.02,-0.01,-0.05,0.05
15.504083156585693,-0.01,-0.01,-0.06,0.06
15.51292610168457,-0.02,-0.02,-0.05,0.05
15.522929191589355,-0.02,-0.01,-0.07,0.07
15.532710075378418,-0.02,-0.01,-0.07,0.07
15.542699098587036,-0.02,-0.01,-0.07,0.07
15.55371904373169,-0.01,0.0,-0.05,0.05
15.563409090042114,-0.01,0.0,-0.06,0.06
15.601247310638428,-0.01,-0.01,-0.07,0.07
15.602424144744873,-0.01,-0.01,-0.06,0.06
15.602849006652832,-0.01,-0.01,-0.05,0.05
15.603277206420898,-0.01,-0.01,-0.07,0.07
15.617751121520996,-0.02,0.0,-0.07,0.07
15.622601985931396,-0.01,0.0,-0.06,0.06
15.632424116134644,-0.01,-0.01,-0.05,0.05
15.642364978790283,-0.02,-0.01,-0.06,0.06
15.653058052062988,-0.01,-0.01,-0.07,0.07
15.662630081176758,-0.01,0.0,-0.07,0.07
15.677009105682373,-0.03,0.0,-0.06,0.06
15.701544284820557,-0.02,-0.01,-0.05,0.05
15.702619075775146,-0.02,-0.01,-0.05,0.05
15.703032970428467,-0.02,0.0,-0.05,0.05
15.711597204208374,-0.02,-0.01,-0.06,0.06
15.721704006195068,-0.02,0.0,-0.07,0.07
15.731755256652832,0.01,-0.01,-0.07,0.07
15.741636276245117,0.0,-0.01,-0.07,0.07
15.75243616104126,-0.01,0.0,-0.05,0.05
15.761963129043579,-0.01,0.0,-0.05,0.05
15.775917053222656,0.0,0.0,-0.05,0.05
15.799983024597168,-0.01,-0.01,-0.07,0.07
15.801221132278442,-0.01,-0.01,-0.06,0.06
15.801630020141602,-0.02,-0.01,-0.06,0.06
15.818193197250366,-0.02,0.0,-0.06,0.06
15.820923089981079,-0.02,-0.01,-0.06,0.06
15.831245183944702,-0.02,0.0,-0.05,0.05
15.840964317321777,-0.02,0.0,-0.05,0.05
15.851924180984497,-0.01,-0.01,-0.07,0.07
15.86196517944336,-0.01,-0.01,-0.07,0.07
15.874665260314941,-0.01,-0.01,-0.07,0.07
15.900777101516724,-0.01,0.0,-0.07,0.07
15.901581287384033,-0.01,0.01,-0.06,0.06
15.90206527709961,-0.01,0.0,-0.04,0.04
15.910980224609375,0.0,0.0,-0.06,0.06
15.920828104019165,-0.01,0.0,-0.06,0.06
15.93053412437439,-0.01,0.0,-0.06,0.06
15.94061803817749,-0.02,0.0,-0.07,0.07
15.951426029205322,-0.01,-0.01,-0.06,0.06
15.962700128555298,-0.01,0.0,-0.07,0.07
15.97352123260498,-0.01,0.0,-0.07,0.07
16.00192928314209,-0.01,-0.01,-0.06,0.06
16.003027200698853,-0.02,0.0,-0.06,0.06
16.003557205200195,-0.01,-0.01,-0.07,0.07
16.007253170013428,-0.02,-0.01,-0.07,0.07
16.01741123199463,-0.01,0.0,-0.06,0.06
16.027948141098022,-0.01,-0.01,-0.06,0.06
16.037360191345215,0.0,0.0,-0.06,0.06
16.047240257263184,0.0,0.0,-0.06,0.06
16.05793309211731,-0.01,-0.01,-0.06,0.06
16.070626258850098,-0.01,-0.01,-0.06,0.06
16.077965259552002,-0.01,0.01,-0.07,0.07
16.104027271270752,-0.01,0.0,-0.07,0.07
16.10448408126831,-0.01,0.0,-0.06,0.06
16.106932163238525,-0.01,0.0,-0.05,0.05
16.116886138916016,-0.02,0.0,-0.06,0.06
16.126809120178223,-0.02,0.0,-0.06,0.06
16.136847972869873,-0.02,0.0,-0.07,0.07
16.146810054779053,-0.01,-0.01,-0.06,0.06
16.156918048858643,-0.01,-0.01,-0.06,0.06
16.17020010948181,-0.02,0.0,-0.05,0.05
16.176770210266113,-0.01,0.0,-0.07,0.07
16.21897315979004,-0.01,-0.01,-0.06,0.06
16.219714164733887,-0.01,0.0,-0.06,0.06
16.220044136047363,0.0,0.0,-0.06,0.06
16.22037696838379,0.0,0.0,-0.07,0.07
16.225839138031006,0.0,0.0,-0.07,0.07
16.235863208770752,0.0,-0.01,-0.06,0.06
16.245724201202393,-0.01,-0.01,-0.06,0.06
16.25575828552246,-0.01,-0.01,-0.06,0.06
16.267253160476685,-0.01,-0.01,-0.06,0.06
16.27583122253418,-0.01,0.0,-0.05,0.05
16.31670904159546,-0.02,-0.01,-0.07,0.07
16.317445278167725,-0.02,0.0,-0.06,0.06
16.31777310371399,-0.01,-0.01,-0.05,0.05
16.318024158477783,-0.01,-0.01,-0.06,0.06
16.325326204299927,-0.02,-0.01,-0.06,0.06
16.33538818359375,-0.01,0.0,-0.06,0.06
16.34516215324402,-0.01,-0.01,-0.07,0.07
16.35528326034546,0.0,-0.01,-0.06,0.06
16.36635112762451,0.0,0.01,-0.07,0.07
16.375121116638184,-0.01,0.0,-0.07,0.07
16.410569190979004,-0.01,-0.01,-0.06,0.06
16.41083526611328,0.0,0.0,-0.06,0.06
16.411043167114258,-0.01,0.0,-0.06,0.06
16.414705276489258,-0.01,0.0,-0.06,0.06
16.424732208251953,-0.02,-0.01,-0.06,0.06
16.43481731414795,-0.01,0.0,-0.06,0.06
16.444550037384033,-0.01,0.0,-0.06,0.06
16.454559087753296,-0.01,0.0,-0.06,0.06
16.494747161865234,-0.02,0.0,-0.05,0.05
16.49524712562561,-0.02,0.0,-0.05,0.05
16.495512008666992,-0.01,-0.01,-0.07,0.07
16.49567699432373,-0.01,-0.01,-0.07,0.07
16.505706310272217,-0.02,0.0,-0.07,0.07
16.51537322998047,-0.01,0.0,-0.06,0.06
16.525471210479736,0.0,0.0,-0.07,0.07
16.535389184951782,0.0,0.0,-0.06,0.06
16.545560121536255,-0.01,0.0,-0.06,0.06
16.555320262908936,0.0,-0.01,-0.06,0.06
16.566465139389038,-0.01,0.0,-0.05,0.05
16.575270175933838,-0.02,0.0,-0.06,0.06
16.61078119277954,-0.02,0.0,-0.05,0.05
16.611079216003418,-0.01,-0.01,-0.06,0.06
16.611287117004395,-0.02,-0.01,-0.06,0.06
16.61482810974121,-0.01,0.0,-0.06,0.06
16.62487030029297,-0.01,0.0,-0.07,0.07
16.634879112243652,-0.02,-0.01,-0.06,0.06
16.644764184951782,-0.02,-0.01,-0.07,0.07
16.654802322387695,-0.01,-0.01,-0.06,0.06
16.665739059448242,0.0,0.0,-0.04,0.04
16.67475414276123,-0.01,-0.01,-0.05,0.05
16.7099289894104,-0.01,0.0,-0.06,0.06
16.71016812324524,-0.01,0.0,-0.07,0.07
16.71034526824951,-0.01,0.0,-0.07,0.07
16.714189052581787,-0.01,0.0,-0.07,0.07
16.72444725036621,-0.02,0.0,-0.07,0.07
16.734182119369507,-0.01,0.0,-0.06,0.06
16.744190216064453,-0.01,0.0,-0.06,0.06
16.75415325164795,-0.02,0.0,-0.06,0.06
16.765252113342285,-0.01,0.0,-0.05,0.05
16.774165153503418,-0.01,-0.01,-0.06,0.06
16.810294151306152,-0.01,0.0,-0.06,0.06
16.810574054718018,-0.01,-0.01,-0.07,0.07
16.81080913543701,0.0,0.0,-0.07,0.07
16.813655138015747,-0.01,0.0,-0.06,0.06
16.823785305023193,-0.02,-0.01,-0.06,0.06
16.833614110946655,-0.01,0.0,-0.06,0.06
16.843585968017578,-0.02,0.0,-0.06,0.06
16.853485107421875,-0.01,0.0,-0.06,0.06
16.864293098449707,-0.02,-0.01,-0.07,0.07
16.873371124267578,-0.01,0.0,-0.07,0.07
16.910408973693848,-0.01,0.0,-0.06,0.06
16.910609245300293,-0.01,0.0,-0.06,0.06
16.910889148712158,-0.02,-0.01,-0.05,0.05
16.913325309753418,-0.01,-0.01,-0.06,0.06
16.92332696914673,-0.01,-0.01,-0.07,0.07
16.932844161987305,-0.01,0.0,-0.07,0.07
16.942893028259277,-0.01,0.0,-0.07,0.07
16.952959060668945,-0.01,0.0,-0.06,0.06
16.99225616455078,-0.01,0.0,-0.06,0.06
16.992430210113525,-0.01,0.0,-0.06,0.06
16.99268412590027,-0.02,-0.01,-0.06,0.06
16.992956161499023,-0.01,0.0,-0.07,0.07
17.00276517868042,-0.01,-0.01,-0.07,0.07
17.01255702972412,0.0,-0.01,-0.07,0.07
17.022630214691162,-0.01,-0.01,-0.07,0.07
17.032507181167603,-0.01,0.0,-0.05,0.05
17.042482137680054,-0.02,0.0,-0.05,0.05
17.05234718322754,-0.02,0.0,-0.05,0.05
17.093082189559937,-0.01,0.0,-0.07,0.07
17.093327045440674,-0.01,0.0,-0.08,0.08
17.09354305267334,-0.01,0.0,-0.07,0.07
17.093785285949707,-0.02,0.0,-0.06,0.06
17.102302074432373,-0.01,-0.01,-0.05,0.05
17.112037181854248,-0.01,0.0,-0.05,0.05
17.122053146362305,-0.02,0.0,-0.07,0.07
17.13180923461914,-0.02,0.0,-0.08,0.08
17.14198398590088,-0.01,0.0,-0.07,0.07
17.151774168014526,0.0,0.0,-0.07,0.07
17.163125038146973,-0.01,0.0,-0.05,0.05
17.19306707382202,-0.02,-0.01,-0.04,0.04
17.193315029144287,-0.02,-0.01,-0.06,0.06
17.19352626800537,-0.01,-0.01,-0.06,0.06
17.2015380859375,-0.02,0.0,-0.08,0.08
17.211381196975708,-0.02,0.0,-0.08,0.08
17.221429109573364,-0.02,0.0,-0.06,0.06
17.231229305267334,-0.01,0.0,-0.05,0.05
17.24132013320923,-0.01,0.0,-0.07,0.07
17.251304149627686,-0.01,0.0,-0.06,0.06
17.26246929168701,-0.01,0.0,-0.06,0.06
17.294202089309692,-0.01,0.0,-0.05,0.05
17.294509172439575,0.0,-0.01,-0.06,0.06
17.294744968414307,-0.01,0.0,-0.06,0.06
17.300730228424072,-0.01,0.0,-0.06,0.06
17.310827255249023,-0.01,0.0,-0.06,0.06
17.32080316543579,-0.02,0.0,-0.06,0.06
17.330817222595215,-0.02,-0.01,-0.07,0.07
17.340758323669434,-0.01,-0.01,-0.07,0.07
17.350582122802734,-0.01,0.0,-0.06,0.06
17.361818313598633,-0.01,0.0,-0.06,0.06
17.394668102264404,-0.01,0.0,-0.05,0.05
17.394909143447876,-0.01,0.0,-0.06,0.06
17.39515709877014,-0.02,-0.01,-0.06,0.06
17.40036916732788,-0.01,0.0,-0.07,0.07
17.41031503677368,-0.01,0.0,-0.08,0.08
17.4203200340271,0.0,-0.01,-0.07,0.07
17.430289268493652,0.0,0.0,-0.06,0.06
17.44010829925537,0.0,0.0,-0.06,0.06
17.450184106826782,-0.01,0.0,-0.05,0.05
17.461340188980103,0.0,0.0,-0.05,0.05
17.494954109191895,-0.01,-0.01,-0.06,0.06
17.495159149169922,-0.01,-0.01,-0.06,0.06
17.495371103286743,-0.01,0.0,-0.06,0.06
17.499634265899658,-0.02,0.0,-0.06,0.06
17.50975513458252,-0.01,-0.01,-0.06,0.06
17.519731044769287,-0.02,0.0,-0.07,0.07
17.529582023620605,-0.01,0.0,-0.07,0.07
17.53966522216797,-0.02,-0.01,-0.06,0.06
17.549439191818237,-0.02,0.0,-0.06,0.06
17.560930252075195,-0.01,-0.01,-0.05,0.05
17.59603214263916,-0.01,0.0,-0.06,0.06
17.59629726409912,0.0,-0.01,-0.06,0.06
17.596506118774414,-0.01,-0.01,-0.06,0.06
17.59901714324951,0.0,-0.01,-0.07,0.07
17.60916018486023,-0.01,-0.01,-0.06,0.06
17.61901617050171,-0.01,-0.01,-0.06,0.06
17.629005193710327,-0.01,0.0,-0.05,0.05
17.639039039611816,-0.01,0.0,-0.04,0.04
17.648797035217285,-0.01,0.0,-0.06,0.06
17.660304069519043,-0.01,0.0,-0.07,0.07
17.695478200912476,-0.01,0.0,-0.07,0.07
17.695661067962646,-0.01,0.0,-0.07,0.07
17.695914268493652,-0.01,0.0,-0.06,0.06
17.698723316192627,-0.01,0.0,-0.06,0.06
17.70857000350952,-0.01,-0.01,-0.05,0.05
17.718480110168457,-0.01,-0.01,-0.06,0.06
17.72849416732788,-0.01,0.0,-0.06,0.06
17.738386154174805,0.0,0.0,-0.07,0.07
17.74835515022278,-0.01,0.0,-0.06,0.06
17.759618282318115,-0.02,0.01,-0.06,0.06
17.79615020751953,-0.02,0.0,-0.06,0.06
17.79639720916748,-0.01,0.0,-0.06,0.06
17.796640157699585,-0.02,0.01,-0.06,0.06
17.797922134399414,-0.01,0.0,-0.06,0.06
17.80809211730957,-0.01,-0.01,-0.05,0.05
17.81775999069214,0.0,0.0,-0.04,0.04
17.82802414894104,-0.01,0.0,-0.06,0.06
17.837794303894043,-0.01,-0.01,-0.06,0.06
17.847825050354004,-0.01,0.0,-0.06,0.06
17.85908603668213,-0.01,-0.01,-0.07,0.07
17.896449089050293,0.0,-0.01,-0.06,0.06
17.89669919013977,0.0,-0.01,-0.05,0.05
17.896989107131958,-0.01,0.0,-0.06,0.06
17.89720106124878,-0.02,0.0,-0.06,0.06
17.907490253448486,-0.01,0.0,-0.06,0.06
17.917240142822266,0.0,-0.01,-0.06,0.06
17.92732810974121,-0.01,-0.01,-0.07,0.07
17.937332153320312,-0.02,0.0,-0.06,0.06
17.947193145751953,-0.01,0.0,-0.05,0.05
17.95836305618286,-0.01,0.0,-0.04,0.04
17.995980262756348,-0.01,0.0,-0.06,0.06
17.99622631072998,-0.01,0.0,-0.07,0.07
17.99649429321289,-0.01,-0.01,-0.06,0.06
17.996743202209473,0.0,-0.01,-0.05,0.05
18.0069522857666,0.0,-0.01,-0.06,0.06
18.01660418510437,-0.01,0.0,-0.06,0.06
18.026793003082275,-0.01,0.01,-0.06,0.06
18.03662109375,-0.01,0.0,-0.06,0.06
18.046646118164062,0.0,-0.01,-0.05,0.05
18.05779719352722,0.0,-0.01,-0.06,0.06
18.096697092056274,-0.01,0.0,-0.06,0.06
18.096933126449585,-0.02,0.0,-0.06,0.06
18.09718418121338,-0.01,0.0,-0.05,0.05
18.097398281097412,-0.01,0.0,-0.06,0.06
18.106284141540527,-0.01,0.0,-0.06,0.06
18.11616015434265,-0.01,-0.01,-0.06,0.06
18.126140117645264,-0.01,-0.01,-0.06,0.06
18.136020183563232,-0.01,-0.01,-0.07,0.07
18.146117210388184,-0.01,-0.01,-0.05,0.05
18.157271146774292,-0.02,0.0,-0.05,0.05
18.165878295898438,-0.02,0.0,-0.06,0.06
18.197903156280518,-0.02,0.0,-0.06,0.06
18.198241233825684,0.0,0.0,-0.07,0.07
18.198503017425537,0.0,0.0,-0.08,0.08
18.205737113952637,-0.01,0.0,-0.07,0.07
18.215602159500122,0.0,0.0,-0.07,0.07
18.22559118270874,0.0,0.0,-0.05,0.05
18.235465049743652,0.0,-0.01,-0.05,0.05
18.245517253875732,0.0,0.0,-0.05,0.05
18.25670099258423,0.0,-0.01,-0.05,0.05
18.265507221221924,-0.02,0.01,-0.06,0.06
18.298164129257202,-0.01,0.0,-0.06,0.06
18.298397064208984,-0.01,-0.01,-0.06,0.06
18.2986102104187,-0.01,0.0,-0.06,0.06
18.305130004882812,-0.02,-0.01,-0.06,0.06
18.315007209777832,-0.01,-0.01,-0.06,0.06
18.324952125549316,-0.01,0.0,-0.06,0.06
18.334776163101196,-0.02,0.0,-0.06,0.06
18.344792127609253,0.0,0.0,-0.06,0.06
18.35603427886963,0.0,0.0,-0.06,0.06
18.364795207977295,-0.01,0.0,-0.06,0.06
18.398066997528076,0.0,0.0,-0.07,0.07
18.398356199264526,-0.01,0.0,-0.06,0.06
18.398588180541992,-0.01,-0.01,-0.06,0.06
18.404500007629395,0.0,0.0,-0.04,0.04
18.41451930999756,0.0,-0.01,-0.05,0.05
18.42440414428711,-0.01,0.0,-0.05,0.05
18.434170246124268,-0.01,0.0,-0.06,0.06
18.4443781375885,-0.01,0.0,-0.07,0.07
18.455563068389893,-0.02,0.0,-0.06,0.06
18.464285135269165,0.0,0.0,-0.07,0.07
18.498655319213867,-0.01,-0.01,-0.07,0.07
18.498935222625732,0.0,-0.01,-0.06,0.06
18.499152183532715,0.0,-0.01,-0.05,0.05
18.503796100616455,0.0,-0.01,-0.05,0.05
18.513838291168213,0.0,0.0,-0.06,0.06
18.52377700805664,0.01,-0.01,-0.06,0.06
18.533753156661987,-0.01,0.0,-0.06,0.06
18.543673992156982,-0.01,0.0,-0.06,0.06
18.582781314849854,0.0,0.0,-0.05,0.05
18.583057165145874,0.0,-0.01,-0.06,0.06
18.5833101272583,-0.01,0.0,-0.05,0.05
18.583524227142334,-0.02,-0.01,-0.05,0.05
18.59349822998047,-0.01,0.0,-0.06,0.06
18.603209972381592,0.0,0.0,-0.07,0.07
18.613286018371582,-0.02,0.0,-0.07,0.07
18.62321424484253,-0.01,0.0,-0.06,0.06
18.63321614265442,-0.01,-0.01,-0.06,0.06
18.643134117126465,0.0,0.0,-0.06,0.06
18.654107093811035,0.0,0.0,-0.06,0.06
18.663108110427856,-0.01,0.0,-0.06,0.06
18.69925022125244,-0.01,0.0,-0.05,0.05
18.699467182159424,-0.01,0.0,-0.05,0.05
18.699734210968018,0.0,0.0,-0.06,0.06
18.70263409614563,-0.01,-0.01,-0.07,0.07
18.712789058685303,0.0,0.0,-0.08,0.08
18.722715139389038,0.0,0.0,-0.08,0.08
18.732585191726685,0.0,-0.01,-0.06,0.06
18.742611169815063,0.01,0.0,-0.05,0.05
18.75351119041443,0.0,0.0,-0.05,0.05
18.762542247772217,-0.01,0.01,-0.05,0.05
18.798737049102783,-0.01,0.0,-0.05,0.05
18.799025058746338,-0.01,-0.01,-0.06,0.06
18.799275159835815,-0.01,0.0,-0.08,0.08
18.802006244659424,-0.02,0.0,-0.07,0.07
18.8122661113739,-0.01,-0.01,-0.06,0.06
18.822081089019775,0.0,0.0,-0.05,0.05
18.83205819129944,-0.01,-0.01,-0.04,0.04
18.84186601638794,-0.01,-0.01,-0.05,0.05
18.853209018707275,-0.01,0.0,-0.06,0.06
18.8617901802063,0.0,0.0,-0.06,0.06
18.89831304550171,-0.01,-0.01,-0.07,0.07
18.898581981658936,-0.01,0.0,-0.06,0.06
18.898762226104736,-0.01,0.0,-0.06,0.06
18.90143918991089,-0.01,0.0,-0.06,0.06
18.9115571975708,0.0,-0.01,-0.06,0.06
18.921364307403564,-0.01,0.0,-0.05,0.05
18.931425094604492,-0.01,-0.01,-0.06,0.06
18.94135618209839,0.0,0.0,-0.05,0.05
18.979775190353394,-0.01,-0.01,-0.05,0.05
18.980046272277832,0.0,-0.01,-0.06,0.06
18.980290174484253,-0.01,-0.01,-0.07,0.07
18.980992317199707,-0.02,0.0,-0.07,0.07
18.99099826812744,-0.01,-0.01,-0.07,0.07
19.00093126296997,0.0,-0.01,-0.06,0.06
19.01103115081787,-0.01,0.0,-0.05,0.05
19.020843029022217,-0.01,-0.01,-0.05,0.05
19.030867099761963,-0.02,0.0,-0.05,0.05
19.04076623916626,-0.01,0.0,-0.06,0.06
19.052052974700928,0.0,0.0,-0.07,0.07
19.080803155899048,0.0,0.0,-0.07,0.07
19.081071138381958,-0.01,-0.01,-0.07,0.07
19.081358194351196,0.0,0.0,-0.05,0.05
19.090415000915527,0.0,0.0,-0.06,0.06
19.100364208221436,0.0,-0.01,-0.06,0.06
19.11033320426941,-0.01,0.0,-0.06,0.06
19.120155096054077,-0.01,0.0,-0.05,0.05
19.130208015441895,0.0,0.0,-0.05,0.05
19.140289306640625,-0.01,0.0,-0.06,0.06
19.15130114555359,-0.01,0.0,-0.07,0.07
19.182106971740723,-0.01,-0.01,-0.06,0.06
19.182371139526367,0.0,0.0,-0.06,0.06
19.182581186294556,0.01,0.0,-0.06,0.06
19.18985414505005,0.0,0.0,-0.06,0.06
19.199836254119873,-0.01,0.0,-0.06,0.06
19.209885120391846,0.0,0.0,-0.05,0.05
19.21967124938965,-0.01,0.0,-0.06,0.06
19.22978925704956,0.0,-0.01,-0.06,0.06
19.23970317840576,-0.01,-0.01,-0.07,0.07
19.250911235809326,-0.02,-0.01,-0.07,0.07
19.282995223999023,-0.01,0.0,-0.06,0.06
19.283197164535522,-0.01,0.0,-0.06,0.06
19.2834210395813,-0.01,0.0,-0.05,0.05
19.289193153381348,-0.02,0.0,-0.05,0.05
19.29918622970581,-0.01,0.0,-0.06,0.06
19.309239149093628,-0.01,0.0,-0.07,0.07
19.319114208221436,0.0,0.0,-0.07,0.07
19.329036235809326,0.0,0.0,-0.07,0.07
19.339027166366577,0.0,0.0,-0.06,0.06
19.350239276885986,0.0,0.0,-0.05,0.05
19.38342308998108,0.0,0.0,-0.05,0.05
19.383687019348145,0.0,0.01,-0.05,0.05
19.38399028778076,-0.01,0.0,-0.06,0.06
19.38866114616394,-0.02,0.0,-0.06,0.06
19.398648262023926,-0.02,0.0,-0.07,0.07
19.40855598449707,-0.01,0.0,-0.07,0.07
19.41857624053955,-0.01,0.0,-0.06,0.06
19.42843198776245,-0.02,0.0,-0.06,0.06
19.43850016593933,-0.01,-0.01,-0.06,0.06
19.44963812828064,0.0,-0.01,-0.05,0.05
19.48367714881897,0.0,-0.01,-0.07,0.07
19.48391819000244,0.0,-0.01,-0.05,0.05
19.48412799835205,0.0,0.01,-0.05,0.05
19.487957000732422,0.0,0.0,-0.06,0.06
19.49821901321411,0.0,0.0,-0.07,0.07
19.508077144622803,-0.01,0.0,-0.07,0.07
19.517964124679565,-0.01,0.0,-0.06,0.06
19.527883052825928,0.0,-0.01,-0.06,0.06
19.537851095199585,0.0,0.0,-0.05,0.05
19.54916000366211,-0.01,0.0,-0.06,0.06
19.584789276123047,-0.01,0.0,-0.06,0.06
19.585087299346924,-0.02,0.0,-0.07,0.07
19.585336208343506,-0.01,-0.01,-0.07,0.07
19.587470054626465,-0.01,-0.01,-0.06,0.06
19.597654104232788,-0.01,-0.01,-0.05,0.05
19.60733914375305,-0.01,-0.01,-0.06,0.06
19.617309093475342,-0.01,-0.01,-0.06,0.06
19.627334117889404,0.0,0.0,-0.06,0.06
19.637221097946167,0.0,0.0,-0.06,0.06
19.648431301116943,0.0,0.0,-0.06,0.06
19.68479824066162,0.0,0.0,-0.06,0.06
19.685150146484375,0.0,-0.01,-0.06,0.06
19.685387134552002,-0.01,-0.01,-0.06,0.06
19.686840057373047,-0.01,-0.01,-0.06,0.06
19.6970272064209,-0.02,0.0,-0.05,0.05
19.706861972808838,-0.01,0.0,-0.05,0.05
19.716835975646973,-0.01,0.0,-0.06,0.06
19.726689100265503,-0.01,0.0,-0.06,0.06
19.736778259277344,-0.01,0.0,-0.07,0.07
19.74793314933777,-0.01,0.0,-0.06,0.06
19.785212993621826,-0.01,0.0,-0.05,0.05
19.78547716140747,-0.01,-0.01,-0.05,0.05
19.785787105560303,0.0,0.0,-0.08,0.08
19.786118030548096,0.0,0.0,-0.08,0.08
19.79642105102539,0.0,-0.01,-0.08,0.08
19.806294202804565,-0.01,-0.01,-0.06,0.06
19.816322088241577,0.0,0.0,-0.04,0.04
19.826187133789062,-0.02,0.0,-0.03,0.03
19.836246013641357,-0.01,0.0,-0.05,0.05
19.84737205505371,-0.01,0.0,-0.08,0.08
19.88502812385559,-0.02,-0.01,-0.08,0.08
19.885329246520996,-0.02,0.0,-0.07,0.07
19.88557720184326,0.0,0.0,-0.06,0.06
19.8857901096344,0.0,0.0,-0.04,0.04
19.895764112472534,-0.01,0.0,-0.04,0.04
19.905579090118408,-0.02,-0.01,-0.05,0.05
19.91570210456848,-0.01,0.0,-0.07,0.07
19.925590991973877,0.0,0.0,-0.07,0.07
19.935413122177124,-0.01,0.0,-0.07,0.07
19.946686267852783,-0.01,0.0,-0.06,0.06
19.985122203826904,-0.01,0.0,-0.04,0.04
19.98539400100708,-0.01,-0.01,-0.05,0.05
19.985671997070312,0.0,0.0,-0.07,0.07
19.985851287841797,0.0,0.0,-0.07,0.07
19.995198249816895,-0.01,-0.01,-0.07,0.07
20.005401134490967,-0.01,0.0,-0.07,0.07
20.013809204101562,0.0,0.0,-0.06,0.06
20.023603200912476,-0.01,0.0,-0.05,0.05
20.03362798690796,-0.01,-0.01,-0.05,0.05
20.04474401473999,-0.01,0.0,-0.05,0.05
20.053647994995117,-0.01,0.0,-0.06,0.06
20.085334300994873,-0.01,-0.01,-0.06,0.06
20.085546016693115,-0.01,-0.01,-0.06,0.06
20.085803031921387,0.0,0.0,-0.06,0.06
20.093282222747803,0.0,0.0,-0.06,0.06
20.103445053100586,-0.01,-0.01,-0.06,0.06
20.113229274749756,-0.01,-0.01,-0.06,0.06
20.123239994049072,-0.01,-0.01,-0.06,0.06
20.133170127868652,-0.01,0.0,-0.06,0.06
20.14417314529419,-0.01,-0.01,-0.05,0.05
20.152963161468506,-0.01,0.0,-0.06,0.06
20.186058044433594,-0.01,0.0,-0.06,0.06
20.186328172683716,-0.01,-0.01,-0.06,0.06
20.18659019470215,-0.01,0.0,-0.06,0.06
20.19269108772278,-0.01,0.0,-0.06,0.06
20.202685117721558,-0.02,-0.01,-0.06,0.06
20.212679147720337,-0.01,-0.01,-0.05,0.05
20.22241711616516,0.0,-0.01,-0.05,0.05
20.232991218566895,0.0,0.0,-0.06,0.06
20.24414300918579,-0.01,0.0,-0.07,0.07
20.25261926651001,0.0,0.0,-0.06,0.06
20.28627300262451,0.0,0.0,-0.05,0.05
20.28657817840576,0.0,-0.01,-0.06,0.06
20.28681516647339,-0.01,-0.01,-0.06,0.06
20.29209613800049,-0.01,0.01,-0.06,0.06
20.302016258239746,-0.01,-0.01,-0.06,0.06
20.312057971954346,-0.01,-0.01,-0.07,0.07
20.322081089019775,-0.01,0.0,-0.07,0.07
20.331987142562866,-0.02,0.0,-0.06,0.06
20.342985153198242,-0.01,-0.01,-0.05,0.05
20.351952075958252,0.0,0.0,-0.05,0.05
20.39169716835022,0.0,0.0,-0.06,0.06
20.392255306243896,0.0,-0.01,-0.06,0.06
20.392502307891846,-0.01,0.0,-0.06,0.06
20.39271116256714,0.0,0.0,-0.06,0.06
20.401432037353516,0.0,0.0,-0.06,0.06
20.411347150802612,0.0,-0.01,-0.06,0.06
20.421356201171875,0.0,0.0,-0.06,0.06
20.431278228759766,0.0,0.0,-0.06,0.06
20.472043991088867,0.0,0.0,-0.07,0.07
20.472290992736816,-0.01,0.0,-0.06,0.06
20.472819089889526,-0.01,0.0,-0.06,0.06
20.474846124649048,0.0,-0.01,-0.06,0.06
20.484750270843506,-0.01,0.0,-0.07,0.07
20.4946711063385,-0.01,-0.01,-0.06,0.06
20.504499197006226,-0.01,-0.01,-0.06,0.06
20.514716148376465,-0.01,0.0,-0.05,0.05
20.524407148361206,-0.01,-0.01,-0.05,0.05
20.534507274627686,0.0,0.0,-0.05,0.05
20.545427322387695,-0.01,0.0,-0.06,0.06
20.55450201034546,-0.01,-0.01,-0.08,0.08
20.589100122451782,0.0,0.0,-0.06,0.06
20.589282989501953,0.0,0.0,-0.06,0.06
20.58993911743164,0.01,0.0,-0.07,0.07
20.59414529800415,0.0,0.0,-0.06,0.06
20.60410213470459,-0.01,-0.01,-0.05,0.05
20.61399817466736,0.0,0.0,-0.05,0.05
20.62384819984436,0.0,-0.01,-0.06,0.06
20.634034156799316,0.0,0.0,-0.07,0.07
20.644663095474243,-0.01,-0.01,-0.05,0.05
20.653857231140137,-0.01,0.0,-0.06,0.06
20.687499046325684,-0.01,-0.01,-0.06,0.06
20.687779188156128,0.0,0.0,-0.07,0.07
20.68797016143799,-0.02,0.0,-0.07,0.07
20.693570137023926,-0.02,-0.01,-0.05,0.05
20.703543186187744,0.01,0.0,-0.04,0.04
20.71347999572754,0.01,0.0,-0.05,0.05
20.723567008972168,-0.01,0.0,-0.07,0.07
20.733323097229004,-0.01,0.0,-0.07,0.07
20.744038105010986,-0.01,0.0,-0.06,0.06
20.753218173980713,0.0,0.0,-0.06,0.06
20.787553310394287,0.01,-0.01,-0.06,0.06
20.78777313232422,-0.01,0.0,-0.06,0.06
20.78792905807495,-0.01,0.0,-0.06,0.06
20.79285216331482,-0.01,0.0,-0.07,0.07
20.80307626724243,-0.01,0.0,-0.06,0.06
20.812892198562622,-0.01,-0.01,-0.05,0.05
20.822762966156006,-0.01,-0.01,-0.05,0.05
20.832756996154785,-0.01,0.0,-0.05,0.05
20.843485116958618,-0.01,0.0,-0.06,0.06
20.85262632369995,-0.01,-0.01,-0.06,0.06
20.889341115951538,-0.01,0.0,-0.07,0.07
20.889562129974365,-0.01,0.0,-0.05,0.05
20.889822006225586,0.01,-0.01,-0.06,0.06
20.892189979553223,0.01,0.01,-0.06,0.06
20.90240716934204,-0.01,0.0,-0.06,0.06
20.912230014801025,-0.01,0.0,-0.06,0.06
20.922161102294922,-0.01,0.0,-0.05,0.05
20.932112216949463,-0.01,0.0,-0.05,0.05
20.97134017944336,-0.01,0.0,-0.06,0.06
20.97156810760498,-0.02,0.0,-0.06,0.06
20.971789121627808,-0.02,-0.01,-0.07,0.07
20.971967220306396,-0.01,-0.01,-0.07,0.07
20.981865167617798,0.0,0.0,-0.06,0.06
20.991624116897583,-0.02,0.0,-0.05,0.05
21.00183629989624,-0.02,-0.01,-0.05,0.05
21.01157808303833,0.0,0.0,-0.05,0.05
21.021680116653442,0.0,-0.01,-0.07,0.07
21.03160524368286,-0.01,0.0,-0.09,0.09
21.04240131378174,-0.02,-0.01,-0.07,0.07
21.051640033721924,0.0,0.0,-0.05,0.05
21.083096027374268,0.01,-0.01,-0.05,0.05
21.083701133728027,-0.01,0.0,-0.05,0.05
21.083937168121338,-0.01,0.0,-0.06,0.06
21.095375061035156,-0.02,0.0,-0.07,0.07
21.101189136505127,-0.01,-0.01,-0.06,0.06
21.111083030700684,-0.01,-0.01,-0.05,0.05
21.121154308319092,-0.01,-0.01,-0.04,0.04
21.13108205795288,-0.01,0.0,-0.05,0.05
21.167410135269165,-0.01,0.01,-0.06,0.06
21.167681217193604,-0.01,-0.01,-0.07,0.07
21.167936086654663,-0.01,0.0,-0.06,0.06
21.170735120773315,0.0,-0.01,-0.06,0.06
21.180790185928345,-0.01,0.0,-0.05,0.05
21.19069004058838,-0.01,0.0,-0.04,0.04
21.200627088546753,-0.01,0.0,-0.03,0.03
21.210448265075684,0.0,0.0,-0.05,0.05
21.220553159713745,-0.01,0.0,-0.08,0.08
21.23063611984253,-0.03,-0.01,-0.09,0.09
21.27043914794922,-0.02,-0.01,-0.07,0.07
21.270716190338135,0.0,-0.01,-0.05,0.05
21.270986080169678,0.01,0.0,-0.03,0.03
21.27119517326355,-0.01,0.0,-0.03,0.03
21.28016710281372,-0.02,-0.01,-0.05,0.05
21.290016174316406,-0.01,0.0,-0.07,0.07
21.29999828338623,-0.01,0.0,-0.09,0.09
21.309863090515137,0.0,0.0,-0.08,0.08
21.319982051849365,0.0,0.0,-0.05,0.05
21.329867124557495,0.0,0.0,-0.03,0.03
21.340984106063843,0.0,0.0,-0.04,0.04
21.371811151504517,-0.01,0.0,-0.06,0.06
21.372107982635498,-0.01,-0.01,-0.08,0.08
21.372307300567627,-0.01,-0.01,-0.08,0.08
21.379638195037842,-0.02,0.0,-0.06,0.06
21.38942003250122,-0.01,0.0,-0.04,0.04
21.39950132369995,0.0,0.0,-0.05,0.05
21.40929412841797,-0.01,-0.01,-0.06,0.06
21.419556140899658,-0.02,0.0,-0.07,0.07
21.429275035858154,-0.03,0.0,-0.08,0.08
21.440441131591797,0.0,-0.01,-0.08,0.08
21.47300624847412,0.01,0.0,-0.07,0.07
21.47330117225647,0.0,0.0,-0.05,0.05
21.47356414794922,-0.01,0.0,-0.02,0.02
21.478994131088257,-0.01,-0.01,-0.04,0.04
21.48897409439087,0.0,0.0,-0.07,0.07
21.49900722503662,-0.01,0.0,-0.08,0.08
21.50917911529541,-0.02,0.0,-0.07,0.07
21.518858194351196,-0.01,0.0,-0.05,0.05
21.528714179992676,0.0,0.0,-0.03,0.03
21.540016174316406,-0.01,0.01,-0.06,0.06
21.57254123687744,-0.03,0.01,-0.07,0.07
21.572805166244507,-0.01,-0.01,-0.07,0.07
21.572983264923096,-0.01,-0.01,-0.07,0.07
21.578349113464355,0.0,0.0,-0.07,0.07
21.588245153427124,0.0,0.0,-0.03,0.03
21.598315238952637,0.0,-0.01,-0.03,0.03
21.608267307281494,-0.01,0.0,-0.05,0.05
21.61818814277649,-0.01,0.0,-0.08,0.08
21.628103256225586,-0.02,0.0,-0.08,0.08
21.639461994171143,0.0,-0.01,-0.06,0.06
21.673129081726074,0.01,0.0,-0.05,0.05
21.6733660697937,0.0,0.0,-0.05,0.05
21.67361307144165,-0.02,0.0,-0.03,0.03
21.677746295928955,-0.01,0.01,-0.05,0.05
21.68778705596924,-0.01,0.0,-0.07,0.07
21.69767117500305,0.0,0.0,-0.07,0.07
21.707691192626953,-0.01,-0.01,-0.06,0.06
21.717666149139404,-0.02,-0.01,-0.05,0.05
21.727533102035522,0.0,0.0,-0.05,0.05
21.738773107528687,-0.01,-0.01,-0.05,0.05
21.773675203323364,-0.01,0.0,-0.05,0.05
21.773910999298096,-0.01,-0.01,-0.05,0.05
21.774193286895752,0.0,0.0,-0.06,0.06
21.777132987976074,0.0,0.0,-0.07,0.07
21.78719210624695,-0.01,0.0,-0.06,0.06
21.797094106674194,-0.01,0.0,-0.05,0.05
21.807207107543945,0.0,0.0,-0.04,0.04
21.81705331802368,0.01,0.0,-0.06,0.06
21.827070236206055,0.0,-0.01,-0.07,0.07
21.838099002838135,-0.01,-0.01,-0.07,0.07
21.874274253845215,-0.01,0.0,-0.06,0.06
21.874518156051636,-0.01,0.0,-0.05,0.05
21.874765157699585,-0.01,-0.01,-0.04,0.04
21.876677989959717,0.0,0.0,-0.06,0.06
21.88675308227539,-0.01,-0.01,-0.09,0.09
21.896560192108154,-0.01,0.0,-0.08,0.08
21.9065580368042,0.0,-0.01,-0.06,0.06
21.916470050811768,0.01,0.0,-0.05,0.05
21.926444053649902,0.01,-0.01,-0.03,0.03
21.937543153762817,-0.02,0.0,-0.04,0.04
21.973758220672607,-0.02,0.0,-0.05,0.05
21.974050045013428,0.0,-0.01,-0.08,0.08
21.974295139312744,0.01,-0.01,-0.09,0.09
21.97600507736206,-0.01,0.0,-0.07,0.07
21.986066102981567,-0.03,0.0,-0.03,0.04
21.995835304260254,-0.01,-0.01,-0.02,0.02
22.00601625442505,0.0,-0.01,-0.05,0.05
22.01584815979004,-0.01,-0.01,-0.09,0.09
22.025821208953857,-0.02,0.0,-0.09,0.09
22.03692626953125,-0.01,0.0,-0.07,0.07
22.07520818710327,0.0,0.0,-0.04,0.04
22.075473308563232,0.01,-0.01,-0.04,0.04
22.07575011253357,-0.01,0.0,-0.06,0.06
22.075960159301758,-0.02,0.0,-0.06,0.06
22.085517168045044,-0.01,-0.01,-0.06,0.06
22.095271110534668,0.01,0.0,-0.07,0.07
22.105444192886353,0.0,0.0,-0.06,0.06
22.115195274353027,-0.02,0.0,-0.06,0.06
22.125214099884033,-0.02,-0.01,-0.06,0.06
22.13651418685913,0.0,-0.02,-0.05,0.05
22.174776077270508,-0.01,-0.01,-0.05,0.05
22.175005197525024,-0.01,0.0,-0.05,0.05
22.175228118896484,-0.01,0.0,-0.06,0.06
22.17549705505371,0.01,-0.01,-0.08,0.08
22.184844970703125,0.02,-0.01,-0.09,0.09
22.194651126861572,-0.01,-0.01,-0.07,0.07
22.2048761844635,-0.02,0.01,-0.05,0.05
22.214550018310547,0.0,0.0,-0.03,0.03
22.224663257598877,0.02,-0.01,-0.03,0.03
22.2358181476593,0.01,-0.01,-0.06,0.06
22.275776147842407,-0.01,0.0,-0.09,0.09
22.276020050048828,-0.02,0.0,-0.09,0.09
22.276298999786377,-0.01,-0.01,-0.06,0.06
22.276551246643066,0.0,-0.01,-0.04,0.04
22.28416919708252,0.0,0.0,-0.04,0.04
22.294301986694336,-0.03,0.0,-0.05,0.05
22.304203033447266,-0.02,-0.01,-0.06,0.06
22.313987255096436,0.01,-0.01,-0.08,0.08
22.32409906387329,0.01,-0.01,-0.09,0.09
22.33500623703003,-0.01,0.0,-0.08,0.08
22.344077110290527,-0.02,0.0,-0.04,0.04
22.375197172164917,-0.01,0.0,-0.02,0.02
22.37549114227295,0.02,-0.01,-0.04,0.04
22.37575912475586,0.01,0.0,-0.08,0.08
22.38365602493286,-0.02,-0.01,-0.09,0.09
22.39365530014038,-0.03,0.0,-0.08,0.08
22.40360713005066,0.01,0.0,-0.06,0.06
22.413414001464844,0.01,0.0,-0.05,0.05
22.423583984375,-0.01,0.0,-0.04,0.04
22.43504810333252,-0.02,0.0,-0.04,0.04
22.44359302520752,-0.01,-0.01,-0.06,0.06
22.476003170013428,-0.01,-0.01,-0.07,0.07
22.476271152496338,-0.02,-0.01,-0.08,0.08
22.476515293121338,-0.01,-0.01,-0.07,0.07
22.483088970184326,0.0,0.0,-0.05,0.05
22.492998123168945,0.0,-0.01,-0.05,0.05
22.502994060516357,0.02,0.0,-0.05,0.05
22.512871265411377,-0.01,0.0,-0.06,0.06
22.522876262664795,-0.01,0.0,-0.06,0.06
22.533685207366943,0.0,0.0,-0.05,0.05
22.542860984802246,0.01,0.0,-0.06,0.06
22.575865268707275,0.0,-0.01,-0.07,0.07
22.57616424560547,-0.02,0.0,-0.05,0.05
22.57641315460205,-0.02,-0.01,-0.04,0.04
22.582523107528687,0.0,-0.01,-0.05,0.05
22.59233522415161,0.0,-0.01,-0.05,0.05
22.602442264556885,-0.01,0.0,-0.07,0.07
22.612186193466187,-0.02,-0.01,-0.07,0.07
22.62236213684082,0.0,0.0,-0.05,0.05
22.63310718536377,0.0,-0.01,-0.06,0.06
22.642220973968506,-0.02,0.01,-0.06,0.06
22.676568031311035,-0.02,0.0,-0.05,0.05
22.676831245422363,0.0,-0.01,-0.05,0.05
22.677080154418945,0.01,-0.01,-0.07,0.07
22.681936264038086,0.01,-0.01,-0.08,0.08
22.691894054412842,-0.01,-0.01,-0.07,0.07
22.70192313194275,-0.02,-0.01,-0.04,0.04
22.711740970611572,0.0,-0.01,-0.03,0.03
22.721786975860596,0.02,-0.01,-0.04,0.04
22.73237109184265,-0.01,0.0,-0.08,0.08
22.74169611930847,-0.02,-0.01,-0.08,0.08
22.777003288269043,0.0,-0.01,-0.07,0.07
22.77724599838257,0.0,-0.01,-0.05,0.05
22.777520179748535,-0.01,0.0,-0.04,0.04
22.78120517730713,0.0,-0.01,-0.04,0.04
22.791304111480713,0.0,0.0,-0.04,0.04
22.801220178604126,-0.01,0.0,-0.07,0.07
22.811185121536255,0.0,-0.01,-0.09,0.09
22.82117509841919,0.0,-0.01,-0.08,0.08
22.831902027130127,-0.01,0.0,-0.07,0.07
22.841183185577393,-0.02,0.0,-0.05,0.05
22.876695156097412,-0.01,0.0,-0.02,0.02
22.87699818611145,0.0,-0.01,-0.04,0.04
22.877231121063232,0.0,-0.02,-0.08,0.08
22.880574226379395,0.0,-0.01,-0.08,0.08
22.890791177749634,0.0,0.0,-0.07,0.07
22.90074920654297,-0.02,-0.01,-0.06,0.06
22.910592079162598,0.0,-0.01,-0.06,0.06
22.92063617706299,0.01,-0.01,-0.04,0.04
22.931251049041748,-0.01,0.0,-0.04,0.04
22.94049310684204,-0.02,0.0,-0.08,0.08
22.976760149002075,-0.01,-0.01,-0.08,0.08
22.97697401046753,-0.01,-0.02,-0.08,0.08
22.97718906402588,-0.01,-0.02,-0.06,0.06
22.97999620437622,-0.01,-0.01,-0.03,0.03
22.990143299102783,-0.01,0.0,-0.03,0.03
23.00005006790161,-0.01,0.0,-0.04,0.04
23.01012420654297,0.02,-0.01,-0.06,0.06
23.02005410194397,0.01,-0.01,-0.09,0.09
23.030874252319336,-0.01,-0.01,-0.1,0.1
23.04001808166504,-0.02,0.01,-0.07,0.07
23.077458143234253,-0.02,-0.01,-0.03,0.03
23.077710151672363,0.0,-0.01,-0.01,0.01
23.07793426513672,0.01,-0.01,-0.03,0.03
23.079411029815674,-0.02,0.0,-0.06,0.06
23.089600086212158,-0.03,0.0,-0.09,0.09
23.099459171295166,0.0,-0.02,-0.08,0.08
23.10944128036499,0.0,-0.01,-0.06,0.06
23.11942219734192,0.0,0.0,-0.05,0.05
23.15934109687805,-0.02,0.0,-0.03,0.03
23.159555196762085,0.0,0.0,-0.03,0.03
23.15978217124939,0.01,0.0,-0.08,0.08
23.16002607345581,0.0,-0.01,-0.09,0.09
23.169182300567627,-0.01,0.0,-0.07,0.07
23.179028034210205,0.0,-0.01,-0.04,0.04
23.18898105621338,0.01,-0.01,-0.04,0.04
23.198931217193604,0.0,-0.01,-0.04,0.04
23.208911180496216,-0.02,-0.01,-0.05,0.05
23.218667030334473,-0.02,-0.01,-0.06,0.06
23.229624271392822,-0.02,-0.01,-0.06,0.06
23.260303020477295,0.0,-0.01,-0.07,0.07
23.26051425933838,0.0,-0.01,-0.06,0.06
23.26073718070984,-0.01,-0.01,-0.04,0.04
23.268484115600586,-0.01,-0.01,-0.05,0.05
23.278513193130493,0.0,-0.02,-0.07,0.07
23.28839921951294,0.0,0.0,-0.07,0.07
23.29797911643982,0.0,0.0,-0.07,0.07
23.308391094207764,0.01,0.0,-0.05,0.05
23.318191051483154,0.01,-0.01,-0.06,0.06
23.32906723022461,0.02,0.0,-0.04,0.04
23.360045194625854,0.0,0.0,-0.05,0.05
23.360286235809326,-0.05,0.0,-0.06,0.07
23.360512256622314,0.0,-0.01,-0.06,0.06
23.39005422592163,0.04,-0.01,-0.07,0.08
23.390308141708374,-0.02,0.0,-0.09,0.09
23.390514135360718,-0.06,0.0,-0.06,0.08
23.397590160369873,-0.03,0.0,0.01,0.03
23.40770411491394,0.0,0.0,-0.01,0.01
23.417529106140137,0.01,-0.01,-0.08,0.08
23.428369998931885,0.0,0.0,-0.11,0.11
23.455108165740967,-0.02,0.01,-0.11,0.11
23.45557713508606,0.0,0.0,-0.05,0.05
23.457258224487305,0.04,-0.01,0.0,0.04
23.47077512741089,0.02,0.0,-0.01,0.02
23.477195262908936,-0.01,0.01,-0.04,0.04
23.48725414276123,-0.02,-0.01,-0.07,0.07
23.49711513519287,0.01,0.0,-0.09,0.09
23.507235050201416,0.01,-0.01,-0.1,0.1
23.516905307769775,0.0,-0.01,-0.07,0.07
23.52828812599182,-0.03,0.0,-0.01,0.03
23.55971097946167,-0.03,0.0,0.0,0.03
23.55997610092163,-0.01,-0.02,-0.04,0.04
23.56019401550293,0.0,-0.02,-0.08,0.08
23.566760063171387,-0.02,0.0,-0.11,0.11
23.576698303222656,-0.01,0.0,-0.09,0.09
23.586650133132935,0.0,0.0,-0.03,0.03
23.59656310081482,0.01,0.0,-0.01,0.01
23.606554985046387,0.01,0.0,-0.04,0.04
23.616379261016846,-0.01,0.0,-0.06,0.06
23.627609252929688,0.0,-0.01,-0.07,0.07
23.660953044891357,0.01,-0.01,-0.08,0.08
23.66122531890869,0.0,0.0,-0.06,0.06
23.661450147628784,-0.02,0.0,-0.03,0.03
23.666011095046997,-0.01,-0.01,-0.04,0.04
23.67619228363037,0.0,-0.02,-0.07,0.07
23.68595027923584,-0.02,-0.02,-0.1,0.1
23.69602608680725,-0.03,-0.01,-0.09,0.09
23.706029176712036,-0.04,-0.01,-0.04,0.05
23.715769290924072,0.0,-0.01,-0.01,0.01
23.726821184158325,0.02,-0.01,-0.03,0.03
23.762246131896973,-0.01,0.01,-0.09,0.09
23.762524127960205,-0.02,0.0,-0.11,0.11
23.76276922225952,0.0,-0.01,-0.06,0.06
23.76537013053894,0.03,-0.01,-0.03,0.04
23.775578022003174,0.04,-0.01,-0.05,0.06
23.785471200942993,0.0,0.01,-0.07,0.07
23.795432090759277,-0.03,0.0,-0.06,0.06
23.805354118347168,-0.01,-0.01,-0.05,0.05
23.815338134765625,0.01,-0.01,-0.04,0.04
23.826296091079712,-0.01,0.0,-0.05,0.05
23.86371111869812,-0.05,0.0,-0.07,0.08
23.863991260528564,-0.03,-0.01,-0.08,0.08
23.86422109603882,0.01,-0.01,-0.07,0.07
23.864752292633057,0.01,-0.01,-0.06,0.06
23.875086307525635,-0.01,0.0,-0.07,0.07
23.88468599319458,-0.01,-0.01,-0.03,0.03
23.89482307434082,0.02,-0.01,-0.03,0.03
23.904725074768066,0.03,-0.01,-0.07,0.07
23.914757251739502,0.01,0.0,-0.09,0.09
23.925689220428467,0.0,0.0,-0.07,0.07
23.962887287139893,0.02,0.0,-0.05,0.05
23.9631290435791,0.0,-0.01,-0.05,0.05
23.963385105133057,-0.01,-0.02,-0.07,0.07
23.964488983154297,-0.04,-0.01,-0.07,0.08
23.974398136138916,-0.03,-0.01,-0.06,0.06
23.984163284301758,-0.01,-0.01,-0.06,0.06
23.99418020248413,-0.01,0.0,-0.04,0.04
24.00413417816162,-0.03,0.0,-0.04,0.05
24.01418709754944,-0.02,-0.01,-0.06,0.06
24.02508306503296,0.0,0.0,-0.07,0.07
24.063133239746094,0.02,-0.02,-0.08,0.08
24.063401222229004,0.03,-0.01,-0.07,0.07
24.063648223876953,0.01,0.0,-0.05,0.05
24.063810110092163,0.01,0.0,-0.05,0.05
24.073886156082153,0.01,-0.01,-0.03,0.03
24.083606243133545,0.0,-0.01,-0.03,0.03
24.093772172927856,-0.02,0.0,-0.07,0.07
24.103645086288452,-0.01,-0.02,-0.08,0.08
24.11352825164795,0.0,-0.02,-0.08,0.08
24.12439727783203,-0.01,-0.01,-0.08,0.08
24.163286209106445,-0.02,0.0,-0.06,0.06
24.163560152053833,0.0,-0.01,-0.03,0.03
24.16375207901001,0.0,0.0,-0.03,0.03
24.163992166519165,-0.02,-0.01,-0.07,0.07
24.17327308654785,-0.01,-0.01,-0.05,0.05
24.182988166809082,-0.01,0.0,-0.07,0.07
24.193181037902832,0.01,0.0,-0.09,0.09
24.202789306640625,0.01,0.0,-0.08,0.08
24.213080167770386,0.01,-0.01,-0.02,0.02
24.223879098892212,0.01,-0.02,-0.01,0.02
24.264137268066406,0.02,0.0,-0.04,0.04
24.264410972595215,-0.01,0.01,-0.06,0.06
24.264634132385254,-0.01,-0.01,-0.08,0.08
24.26485300064087,0.01,-0.01,-0.09,0.09
24.27259397506714,-0.01,0.01,-0.08,0.08
24.282515048980713,-0.03,0.01,-0.04,0.05
24.292540073394775,-0.02,-0.02,-0.02,0.03
24.302224159240723,0.0,-0.03,-0.04,0.05
24.31241512298584,0.0,0.0,-0.09,0.09
24.323232173919678,-0.01,0.0,-0.1,0.1
24.332311153411865,-0.01,-0.01,-0.07,0.07
24.364752292633057,0.02,0.0,-0.03,0.03
24.364995002746582,0.03,0.01,-0.03,0.04
24.365231037139893,0.01,0.0,-0.04,0.04
24.372084140777588,-0.03,0.0,-0.07,0.07
24.38208317756653,0.01,-0.02,-0.1,0.1
24.391968250274658,0.03,-0.02,-0.09,0.09
24.401719093322754,-0.01,0.0,-0.04,0.04
24.41187620162964,-0.05,0.01,-0.02,0.05
24.42272114753723,-0.01,-0.02,0.0,0.02
24.431770086288452,0.01,-0.01,-0.03,0.03
24.464488983154297,-0.01,-0.01,-0.11,0.11
24.464739322662354,-0.03,-0.01,-0.12,0.12
24.46499729156494,0.0,0.0,-0.05,0.05
24.471471309661865,0.01,0.0,-0.04,0.04
24.481322288513184,0.02,0.01,-0.03,0.03
24.491422176361084,0.01,0.0,-0.01,0.01
24.501107215881348,0.0,0.0,-0.02,0.02
24.51120615005493,0.01,0.0,-0.09,0.09
24.522098064422607,0.01,-0.01,-0.12,0.12
24.53121328353882,0.02,-0.02,-0.07,0.07
24.564423084259033,0.0,-0.01,-0.04,0.04
24.564664125442505,-0.03,0.02,-0.04,0.05
24.564903259277344,0.0,-0.02,-0.01,0.02
24.570861101150513,0.01,-0.03,-0.03,0.04
24.580660104751587,-0.02,-0.02,-0.1,0.1
24.590773105621338,-0.03,-0.01,-0.11,0.11
24.6008882522583,-0.02,0.01,-0.06,0.06
24.610663175582886,-0.01,0.0,-0.02,0.02
24.621517181396484,0.02,-0.01,-0.03,0.03
24.630598068237305,0.02,0.0,-0.04,0.04
24.665078163146973,-0.02,0.0,-0.07,0.07
24.665332317352295,-0.01,-0.01,-0.09,0.09
24.665544986724854,0.02,-0.01,-0.07,0.07
24.67009925842285,0.03,0.01,-0.05,0.05
24.680286169052124,0.01,0.01,-0.03,0.03
24.69007110595703,-0.01,-0.01,-0.03,0.03
24.70008420944214,0.0,-0.01,-0.06,0.06
24.71002721786499,0.0,0.0,-0.08,0.08
24.720499992370605,0.0,0.0,-0.08,0.08
24.730066299438477,-0.01,-0.01,-0.05,0.05
24.764849185943604,0.01,-0.03,-0.06,0.06
24.765110969543457,0.0,-0.01,-0.07,0.07
24.765343189239502,-0.02,0.0,-0.06,0.06
24.7694730758667,-0.03,0.0,-0.03,0.04
24.7796471118927,-0.02,-0.01,-0.02,0.03
24.789615154266357,0.03,-0.02,-0.04,0.05
24.799437999725342,0.0,0.0,-0.09,0.09
24.80952501296997,-0.02,0.0,-0.1,0.1
24.820093154907227,0.01,-0.02,-0.06,0.06
24.829410076141357,0.03,-0.01,-0.02,0.03
24.8645281791687,-0.01,0.0,-0.04,0.04
24.864742279052734,-0.03,0.0,-0.04,0.05
24.86497712135315,-0.01,-0.01,-0.03,0.03
24.86891222000122,0.01,-0.01,-0.09,0.09
24.879077196121216,0.01,-0.01,-0.14,0.14
24.888939142227173,-0.01,-0.01,-0.09,0.09
24.898900985717773,-0.02,-0.01,0.0,0.02
24.908838272094727,0.0,-0.01,0.01,0.01
24.919649124145508,0.0,0.01,-0.03,0.03
24.92886209487915,0.0,-0.01,-0.05,0.05
24.965460300445557,-0.01,-0.02,-0.09,0.09
24.965713024139404,0.03,-0.02,-0.12,0.12
24.965938091278076,0.03,0.01,-0.11,0.11
24.968366146087646,-0.02,0.01,-0.03,0.03
24.978594303131104,-0.01,0.0,0.02,0.02
24.98833703994751,0.04,-0.02,0.0,0.04
24.998484134674072,0.03,-0.01,-0.08,0.08
25.00827407836914,-0.04,0.0,-0.12,0.12
25.019718170166016,-0.05,-0.01,-0.09,0.1
25.028316974639893,0.01,-0.02,-0.04,0.04
25.065354108810425,0.04,-0.01,-0.01,0.04
25.06563425064087,-0.02,0.0,-0.03,0.03
25.065880298614502,-0.07,-0.01,-0.05,0.08
25.06786012649536,-0.02,-0.01,-0.08,0.08
25.07797622680664,0.05,-0.02,-0.1,0.11
25.08773422241211,0.03,-0.02,-0.1,0.1
25.097803115844727,-0.03,0.0,-0.08,0.08
25.107701301574707,-0.04,0.02,-0.02,0.04
25.147868156433105,0.03,-0.01,0.02,0.03
25.148128032684326,0.06,-0.03,-0.03,0.07
25.148364067077637,0.01,-0.02,-0.1,0.1
25.14859104156494,-0.04,0.01,-0.12,0.12
25.15748405456543,-0.04,-0.01,-0.08,0.09
25.16729712486267,0.02,-0.02,-0.03,0.04
25.17740511894226,0.05,-0.02,-0.02,0.05
25.18709897994995,-0.02,0.0,-0.03,0.03
25.19722318649292,-0.08,0.02,-0.07,0.1
25.207223176956177,-0.03,-0.02,-0.08,0.08
25.218085289001465,0.04,-0.03,-0.07,0.08
25.247968196868896,0.04,-0.01,-0.08,0.09
25.248215198516846,-0.01,0.01,-0.08,0.08
25.248445987701416,-0.02,0.01,-0.04,0.04
25.2568621635437,0.03,-0.02,0.0,0.03
25.26668119430542,0.05,-0.01,-0.03,0.05
25.276756286621094,0.0,0.0,-0.07,0.07
25.286561012268066,-0.03,0.0,-0.08,0.08
25.296569108963013,-0.03,0.0,-0.06,0.06
25.30652904510498,0.02,-0.02,-0.06,0.06
25.31743812561035,0.01,-0.01,-0.07,0.07
25.349407196044922,-0.03,-0.01,-0.04,0.05
25.349623203277588,-0.03,-0.01,-0.05,0.05
25.349812984466553,0.0,-0.01,-0.05,0.05
25.35624408721924,0.02,-0.02,-0.07,0.07
25.36614227294922,-0.01,-0.01,-0.07,0.07
25.37619113922119,-0.03,0.0,-0.02,0.03
25.386155128479004,-0.01,0.01,-0.02,0.02
25.396085262298584,0.05,-0.02,-0.09,0.1
25.40589213371277,0.03,-0.01,-0.11,0.11
25.41689109802246,-0.03,0.0,-0.09,0.09
25.44970703125,-0.03,0.0,-0.03,0.04
25.449961185455322,0.04,-0.02,0.01,0.04
25.450176239013672,0.06,-0.02,-0.03,0.06
25.455690145492554,-0.03,0.01,-0.08,0.08
25.46558713912964,-0.06,0.01,-0.09,0.1
25.475560188293457,0.0,-0.02,-0.05,0.05
25.48543405532837,0.06,-0.03,-0.05,0.08
25.495527267456055,-0.01,0.01,-0.08,0.08
25.505234241485596,-0.06,0.0,-0.06,0.08
25.51640224456787,-0.02,-0.01,-0.02,0.03
25.5505211353302,0.03,-0.01,-0.05,0.05
25.55075716972351,0.03,-0.03,-0.1,0.1
25.550994157791138,-0.01,0.0,-0.08,0.08
25.55507516860962,-0.05,0.03,-0.03,0.06
25.565070152282715,-0.02,0.01,-0.03,0.03
25.575008153915405,0.08,-0.03,-0.02,0.08
25.584871292114258,0.08,-0.02,-0.08,0.11
25.594995975494385,-0.03,0.03,-0.15,0.15
25.604663133621216,-0.06,0.01,-0.08,0.1
25.615824222564697,0.01,-0.02,0.01,0.02
25.65091323852539,0.05,-0.01,0.03,0.05
25.651174068450928,0.01,0.0,-0.04,0.04
25.651408195495605,-0.05,-0.01,-0.09,0.1
25.654381275177002,-0.06,0.0,-0.08,0.1
25.664525032043457,0.01,-0.03,-0.1,0.1
25.67439913749695,0.03,-0.01,-0.09,0.09
25.68440818786621,-0.01,0.0,0.0,0.01
25.694293975830078,-0.03,-0.01,0.0,0.03
25.704113006591797,0.0,0.01,-0.06,0.06
25.715103149414062,0.03,-0.01,-0.09,0.09
25.750926971435547,0.03,-0.02,-0.11,0.11
25.751173973083496,0.0,0.0,-0.08,0.08
25.751383304595947,-0.01,0.0,-0.04,0.04
25.753910064697266,0.01,-0.01,0.0,0.01
25.763947010040283,0.0,-0.01,0.0,0.01
25.773741245269775,-0.03,0.0,-0.06,0.06
25.78376817703247,0.0,-0.01,-0.1,0.1
25.79359722137451,0.01,-0.01,-0.11,0.11
25.803864002227783,0.02,-0.01,-0.12,0.12
25.814722061157227,0.0,0.0,-0.07,0.07
25.85149908065796,-0.04,0.01,0.02,0.04
25.851750135421753,0.0,-0.02,0.04,0.04
25.85197401046753,0.02,-0.01,-0.04,0.04
25.853187084197998,-0.01,-0.01,-0.14,0.14
25.863378047943115,-0.02,-0.02,-0.14,0.14
25.873211145401,-0.03,-0.01,-0.09,0.09
25.88319206237793,0.0,-0.01,-0.03,0.03
25.893146991729736,0.02,0.0,0.02,0.02
25.903110027313232,0.0,-0.01,0.0,0.01
25.914075136184692,-0.03,-0.02,-0.09,0.09
25.951621055603027,-0.01,-0.01,-0.12,0.12
25.951889038085938,0.03,-0.02,-0.11,0.11
25.952126026153564,0.04,0.0,-0.05,0.06
25.95265531539917,0.0,0.01,-0.01,0.01
25.96271514892578,-0.02,0.01,-0.01,0.02
25.972458124160767,-0.01,-0.02,-0.02,0.03
25.982591152191162,-0.01,-0.01,-0.1,0.1
25.992469310760498,0.01,-0.02,-0.13,0.13
26.00238800048828,0.01,-0.02,-0.09,0.09
26.013403177261353,-0.04,0.01,-0.04,0.05
26.051998138427734,-0.01,-0.01,-0.02,0.02
26.052255153656006,0.03,-0.02,-0.01,0.03
26.052457094192505,0.02,-0.02,-0.04,0.04
26.05268096923828,-0.02,0.01,-0.11,0.11
26.062167167663574,-0.05,0.02,-0.1,0.11
26.071884155273438,-0.01,-0.01,-0.03,0.03
26.08209800720215,0.06,-0.04,-0.02,0.07
26.091845989227295,0.02,0.01,-0.08,0.08
26.10181427001953,-0.06,0.03,-0.08,0.1
26.1127872467041,-0.06,-0.01,-0.04,0.07
26.153727054595947,0.04,-0.02,-0.03,0.05
26.15397620201111,0.05,-0.01,-0.06,0.07
26.15419101715088,0.0,-0.01,-0.09,0.09
26.154818058013916,-0.05,0.02,-0.07,0.08
26.161619186401367,-0.01,-0.02,-0.04,0.04
26.17155122756958,0.08,-0.03,-0.05,0.09
26.181527137756348,0.02,0.01,-0.04,0.04
26.191139221191406,-0.05,-0.01,-0.04,0.06
26.201343059539795,-0.04,0.0,-0.06,0.07
26.212021112442017,0.02,-0.02,-0.07,0.07
26.221148014068604,0.05,-0.02,-0.11,0.12
26.253896236419678,-0.01,0.0,-0.12,0.12
26.25414800643921,-0.05,-0.01,-0.04,0.06
26.254374980926514,-0.01,0.0,0.05,0.05
26.261016130447388,0.04,-0.01,0.03,0.05
26.27087926864624,0.02,-0.02,-0.07,0.07
26.280924320220947,-0.03,0.01,-0.1,0.1
26.2906551361084,-0.06,0.01,-0.09,0.1
26.300738096237183,0.03,-0.02,-0.11,0.11
26.3113911151886,0.06,-0.01,-0.08,0.1
26.32065510749817,0.0,0.01,-0.02,0.02
26.353238105773926,-0.05,0.01,0.01,0.05
26.35349130630493,-0.03,-0.01,0.02,0.03
26.35369610786438,0.02,-0.01,-0.05,0.05
26.360340118408203,0.04,-0.03,-0.16,0.16
26.370318174362183,-0.02,0.01,-0.15,0.15
26.380304098129272,-0.04,-0.01,-0.06,0.07
26.390053272247314,0.04,-0.02,0.02,0.04
26.400163173675537,0.01,0.0,0.07,0.07
26.410815238952637,-0.02,0.0,-0.02,0.02
26.419995307922363,-0.02,-0.01,-0.15,0.15
26.453763008117676,-0.01,-0.02,-0.16,0.16
26.45401906967163,0.02,-0.03,-0.15,0.15
26.454222202301025,0.02,0.01,-0.02,0.03
26.459784984588623,-0.02,0.02,0.09,0.09
26.46975326538086,-0.01,0.01,0.08,0.08
26.479687213897705,0.0,-0.01,-0.04,0.04
26.489444255828857,-0.01,-0.02,-0.18,0.18
26.499557971954346,0.0,-0.04,-0.23,0.23
26.510061264038086,0.0,0.0,-0.15,0.15
26.51941728591919,-0.01,0.02,0.01,0.02
26.550312042236328,0.04,0.0,0.13,0.13
26.550539016723633,0.0,0.0,0.11,0.11
26.550779104232788,-0.01,-0.02,-0.05,0.05
26.559070110321045,-0.03,-0.02,-0.2,0.2
26.56913709640503,-0.06,0.01,-0.25,0.25
26.579126119613647,0.01,-0.01,-0.14,0.14
26.58939814567566,0.08,-0.02,0.0,0.08
26.599059104919434,0.02,0.02,0.09,0.09
26.609632968902588,-0.03,0.02,0.07,0.07
26.61892819404602,-0.05,-0.01,-0.02,0.05
26.652804136276245,0.02,-0.03,-0.14,0.14
26.653064250946045,0.03,0.0,-0.22,0.22
26.65327501296997,0.0,0.0,-0.15,0.15
26.658449172973633,-0.01,0.0,0.0,0.01
26.668580055236816,0.0,0.01,0.07,0.07
26.678481101989746,0.06,-0.01,0.05,0.07
26.688425064086914,0.01,-0.03,-0.04,0.05
26.698429107666016,-0.09,0.0,-0.15,0.17
26.708893299102783,-0.06,0.0,-0.2,0.2
26.71838903427124,0.03,-0.01,-0.11,0.11
26.75298500061035,0.05,-0.01,0.0,0.05
26.753214120864868,0.01,-0.01,0.05,0.05
26.75341796875,-0.02,0.0,0.05,0.05
26.75788402557373,-0.06,0.01,-0.03,0.06
26.768067121505737,0.01,-0.02,-0.16,0.16
26.777964115142822,0.06,-0.04,-0.2,0.21
26.787817001342773,0.03,-0.01,-0.14,0.14
26.79791021347046,0.0,0.02,-0.02,0.02
26.808507204055786,-0.02,0.0,0.09,0.09
26.81776213645935,-0.01,-0.01,0.1,0.1
26.853861093521118,0.01,-0.02,-0.02,0.03
26.854101181030273,-0.03,-0.02,-0.21,0.21
26.854334115982056,-0.04,0.0,-0.23,0.23
26.857237100601196,-0.01,-0.03,-0.14,0.14
26.86741828918457,0.07,-0.02,-0.01,0.07
26.87734818458557,0.05,0.01,0.08,0.09
26.887269020080566,-0.02,0.02,0.07,0.07
26.89721417427063,-0.07,-0.02,-0.01,0.07
26.907896995544434,-0.02,-0.04,-0.1,0.1
26.9172101020813,0.03,-0.01,-0.19,0.19
26.955077171325684,0.01,0.01,-0.21,0.21
26.955334186553955,-0.01,0.0,-0.09,0.09
26.955568313598633,0.01,-0.01,0.07,0.07
26.95709800720215,0.04,-0.02,0.08,0.09
26.966893196105957,-0.01,0.0,-0.02,0.02
26.976765155792236,-0.06,0.01,-0.1,0.11
26.986801147460938,-0.05,-0.02,-0.14,0.15
26.996548175811768,0.05,-0.03,-0.13,0.14
27.036920070648193,0.08,-0.02,-0.09,0.12
27.03717803955078,-0.03,0.03,-0.02,0.04
27.037402153015137,-0.06,-0.01,0.04,0.07
27.037600994110107,0.03,-0.01,0.02,0.03
27.046313285827637,0.04,-0.01,-0.05,0.06
27.056251049041748,0.01,-0.03,-0.16,0.16
27.06629514694214,-0.05,0.0,-0.13,0.13
27.07598114013672,-0.01,-0.01,-0.07,0.07
27.086146116256714,0.09,-0.02,-0.02,0.09
27.096041202545166,0.02,-0.01,0.03,0.03
27.106935024261475,-0.06,0.01,0.01,0.06
27.13762617111206,-0.09,0.02,-0.04,0.1
27.137864112854004,-0.02,-0.02,-0.1,0.1
27.13808822631836,0.05,-0.03,-0.15,0.16
27.14571714401245,0.04,-0.03,-0.13,0.13
27.155741214752197,-0.04,0.02,-0.12,0.12
27.16571807861328,-0.06,0.05,-0.01,0.07
27.175469160079956,-0.01,-0.02,0.08,0.08
27.185575008392334,0.06,-0.05,0.05,0.09
27.19545316696167,0.08,-0.04,-0.06,0.1
27.2064311504364,-0.05,0.01,-0.2,0.2
27.23815631866455,-0.12,0.04,-0.18,0.22
27.238417148590088,0.02,-0.07,-0.06,0.09
27.238641262054443,0.13,-0.04,0.03,0.13
27.24509906768799,0.04,0.04,0.03,0.06
27.25514316558838,-0.11,0.03,0.0,0.11
27.265098094940186,-0.06,-0.02,-0.05,0.08
27.27481508255005,0.06,-0.04,-0.08,0.1
27.284999132156372,0.11,-0.02,-0.2,0.22
27.294738292694092,-0.03,0.02,-0.19,0.19
27.305885314941406,-0.1,0.03,-0.02,0.1
27.338073253631592,0.03,-0.02,0.09,0.09
27.338322162628174,0.1,-0.03,0.04,0.11
27.3385591506958,-0.01,0.0,-0.07,0.07
27.344569206237793,-0.1,0.01,-0.14,0.17
27.354759216308594,-0.04,-0.03,-0.13,0.13
27.360506057739258,0.06,-0.02,-0.11,0.12
27.370612144470215,0.02,0.0,-0.06,0.06
27.380621194839478,-0.03,0.01,0.04,0.05
27.390603065490723,-0.06,0.01,0.06,0.08
27.401494026184082,0.04,0.0,-0.02,0.04
27.440195083618164,0.06,-0.06,-0.16,0.18
27.440446138381958,-0.03,0.0,-0.23,0.23
27.440651178359985,-0.07,0.0,-0.14,0.15
27.44084930419922,-0.03,0.0,0.0,0.03
27.45033311843872,0.09,-0.01,0.09,0.12
27.460126161575317,0.1,-0.02,0.07,0.12
27.47023320198059,-0.04,0.02,-0.07,0.08
27.480048179626465,-0.08,-0.01,-0.18,0.19
27.489919185638428,-0.04,-0.01,-0.18,0.18
27.500802040100098,0.09,-0.04,-0.08,0.12
27.539043188095093,0.05,-0.01,-0.03,0.05
27.53931999206543,-0.08,0.05,0.04,0.1
27.53951406478882,-0.08,0.01,0.07,0.1
27.539735317230225,-0.02,-0.03,-0.02,0.04
27.54965615272522,0.07,-0.06,-0.13,0.15
27.55943727493286,0.03,-0.03,-0.23,0.23
27.569724082946777,-0.09,0.05,-0.17,0.19
27.579413175582886,-0.03,0.0,0.0,0.03
27.589402198791504,0.05,-0.01,0.12,0.13
27.60025715827942,0.09,-0.02,0.1,0.13
27.641062259674072,-0.01,0.0,-0.04,0.04
27.641292095184326,-0.07,0.0,-0.2,0.21
27.64151906967163,-0.03,-0.02,-0.24,0.24
27.642203092575073,0.01,-0.01,-0.13,0.13
27.649025201797485,0.02,-0.02,0.0,0.02
27.65885019302368,0.03,0.0,0.06,0.06
27.66904616355896,0.01,0.03,0.08,0.08
27.678750038146973,-0.02,-0.02,-0.07,0.07
27.689064979553223,0.0,-0.04,-0.2,0.2
27.69944715499878,0.04,-0.01,-0.18,0.18
27.73948097229004,-0.01,-0.01,-0.11,0.11
27.73972797393799,-0.04,0.0,0.01,0.04
27.739951133728027,-0.05,0.01,0.15,0.15
27.740172147750854,0.05,-0.01,0.11,0.12
27.748398303985596,-0.01,0.0,-0.13,0.13
27.758392095565796,-0.04,-0.03,-0.29,0.29
27.768352031707764,-0.04,-0.01,-0.22,0.22
27.778096199035645,-0.01,-0.01,-0.08,0.08
27.78821611404419,0.05,0.0,0.08,0.09
27.798850059509277,0.02,0.02,0.12,0.12
27.840857982635498,0.05,-0.03,0.06,0.08
27.841108322143555,0.02,-0.02,-0.11,0.11
27.841337203979492,-0.05,0.0,-0.23,0.23
27.841560125350952,-0.04,-0.01,-0.19,0.19
27.851685047149658,-0.01,-0.02,-0.07,0.07
27.861380100250244,0.06,0.0,0.05,0.07
27.871544122695923,0.02,0.02,0.09,0.09
27.88141918182373,-0.04,-0.03,0.02,0.05
27.891366004943848,-0.05,-0.02,-0.09,0.1
27.90204906463623,-0.05,-0.02,-0.19,0.19
27.940571308135986,0.04,-0.02,-0.16,0.16
27.940823078155518,0.0,-0.01,-0.03,0.03
27.941026210784912,0.0,0.02,0.04,0.04
27.94119620323181,0.02,0.02,0.04,0.04
27.951085090637207,0.01,-0.02,-0.04,0.04
27.960774183273315,0.0,-0.04,-0.13,0.13
27.97090721130371,-0.04,-0.02,-0.14,0.14
27.980772972106934,0.0,0.0,-0.12,0.12
27.990809202194214,0.03,0.02,-0.04,0.05
28.001432180404663,0.0,0.02,0.04,0.04
28.04165816307068,0.02,-0.05,0.06,0.08
28.041903972625732,-0.01,-0.01,-0.02,0.02
28.042129039764404,-0.04,0.0,-0.12,0.12
28.042347192764282,-0.02,-0.02,-0.24,0.24
28.050343990325928,0.03,0.0,-0.16,0.16
28.060171127319336,0.06,-0.03,0.0,0.06
28.07027316093445,0.03,0.0,0.07,0.07
28.080095291137695,-0.1,0.04,0.08,0.13
28.09021019935608,-0.04,-0.04,0.0,0.05
28.100913047790527,0.03,-0.01,-0.08,0.08
28.141728162765503,-0.03,0.0,-0.21,0.21
28.14197301864624,0.01,-0.02,-0.25,0.25
28.14217519760132,0.01,0.0,-0.07,0.07
28.14239501953125,0.06,-0.01,0.08,0.1
28.149843215942383,0.04,0.0,0.05,0.06
28.160125255584717,-0.03,0.01,0.03,0.04
28.169762134552002,-0.05,0.0,-0.06,0.07
28.179501056671143,-0.02,-0.01,-0.19,0.19
28.189642190933228,0.02,-0.04,-0.2,0.2
28.200289249420166,0.02,-0.02,-0.07,0.07
28.209586143493652,-0.02,0.0,0.06,0.06
28.242521286010742,-0.05,0.02,0.05,0.07
28.24276828765869,-0.02,0.0,-0.01,0.02
28.24299430847168,0.05,-0.03,-0.11,0.12
28.249264240264893,-0.02,0.01,-0.18,0.18
28.25928831100464,-0.01,-0.04,-0.15,0.15
28.269204139709473,0.02,0.0,-0.04,0.04
28.279067993164062,0.03,0.05,0.09,0.1
28.28907823562622,0.0,-0.01,-0.01,0.01
28.29962396621704,-0.02,-0.05,-0.1,0.11
28.309075117111206,-0.01,-0.01,-0.09,0.09
28.342939138412476,-0.06,0.0,-0.16,0.17
28.343183040618896,-0.03,-0.02,-0.1,0.1
28.343407154083252,0.03,-0.01,0.11,0.11
28.34868621826172,0.02,0.01,0.07,0.07
28.358678102493286,-0.03,0.02,-0.11,0.11
28.36866807937622,-0.05,0.01,-0.21,0.21
28.37839913368225,0.02,-0.03,-0.15,0.15
28.38843822479248,0.02,-0.02,-0.07,0.07
28.399084091186523,0.05,-0.02,-0.06,0.08
28.408417224884033,0.06,0.02,0.07,0.09
28.44384527206421,-0.03,0.02,0.05,0.06
28.444395065307617,-0.04,0.02,-0.05,0.06
28.44462823867798,-0.05,-0.04,-0.11,0.12
28.447999000549316,0.05,-0.07,-0.16,0.18
28.458084106445312,-0.02,0.03,-0.1,0.1
28.46804428100586,-0.11,0.02,-0.08,0.13
28.477797031402588,0.02,-0.01,0.01,0.02
28.48797607421875,0.04,-0.04,0.03,0.06
28.49846124649048,0.02,-0.01,-0.09,0.09
28.507838249206543,-0.08,0.01,-0.15,0.17
28.54410409927368,-0.05,0.01,-0.05,0.07
28.544783115386963,0.05,-0.01,-0.01,0.05
28.545013189315796,0.08,0.01,-0.07,0.1
28.547436237335205,0.01,0.0,-0.08,0.08
28.557417154312134,-0.01,-0.03,-0.07,0.07
28.567261219024658,0.03,0.01,-0.06,0.06
28.57729721069336,0.0,0.01,-0.06,0.06
28.58736801147461,-0.01,-0.04,-0.05,0.06
28.597875118255615,-0.03,0.01,0.03,0.04
28.607253074645996,-0.02,0.02,-0.02,0.03
28.644679069519043,-0.02,-0.01,-0.13,0.13
28.64538812637329,-0.06,-0.04,-0.13,0.14
28.645618200302124,-0.02,-0.02,-0.03,0.04
28.646918296813965,0.01,0.02,-0.05,0.05
28.65681028366089,-0.02,-0.01,-0.11,0.11
28.666659116744995,0.02,-0.03,-0.01,0.03
28.676732063293457,-0.01,-0.01,-0.03,0.03
28.686738967895508,0.02,0.0,-0.1,0.1
28.697309017181396,0.01,0.02,-0.03,0.03
28.706665992736816,0.05,-0.02,0.01,0.05
28.744999170303345,0.03,0.0,-0.05,0.05
28.745724201202393,-0.04,0.02,-0.16,0.16
28.745975017547607,-0.03,0.0,-0.09,0.09
28.746203184127808,0.01,-0.05,0.02,0.05
28.75626802444458,0.01,0.01,-0.06,0.06
28.76867914199829,0.05,0.0,-0.1,0.11
28.776193141937256,-0.05,0.0,-0.08,0.09
28.786197185516357,-0.08,0.0,-0.04,0.08
28.79670214653015,0.02,-0.05,-0.04,0.06
28.806048154830933,0.03,-0.03,-0.07,0.08
28.846189975738525,-0.06,0.03,0.0,0.06
28.846862316131592,-0.05,-0.04,-0.04,0.07
28.847092151641846,0.01,0.0,-0.06,0.06
28.84729814529419,0.05,0.0,-0.12,0.13
28.8557231426239,-0.01,0.01,-0.19,0.19
28.865804195404053,-0.04,-0.01,-0.1,0.1
28.875576972961426,-0.01,-0.01,0.05,0.05
28.885569095611572,0.06,0.01,0.04,0.07
28.896574020385742,0.08,-0.01,-0.08,0.11
28.905455112457275,-0.03,-0.01,-0.16,0.16
28.94656229019165,-0.06,-0.02,-0.1,0.11
28.947245121002197,0.02,-0.01,-0.08,0.08
28.947474002838135,0.0,0.02,0.01,0.02
28.94769525527954,-0.07,-0.02,0.01,0.07
28.955012321472168,-0.03,0.0,0.0,0.03
28.969703197479248,0.01,-0.02,-0.04,0.04
28.97500705718994,-0.02,-0.01,-0.23,0.23
28.98494529724121,-0.05,0.01,-0.21,0.21
29.02919101715088,-0.01,-0.03,0.02,0.03
29.029759168624878,0.06,-0.04,0.13,0.14
29.0299870967865,0.03,0.0,-0.05,0.05
29.03021216392517,0.05,0.03,-0.09,0.1
29.03453516960144,-0.06,0.02,-0.09,0.11
29.04448699951172,-0.04,-0.04,-0.19,0.19
29.05453610420227,0.03,-0.01,-0.08,0.08
29.0643572807312,0.05,0.0,0.08,0.09
29.074522972106934,-0.01,-0.01,0.03,0.03
29.08446502685547,-0.08,0.02,-0.09,0.12
29.095407009124756,-0.05,-0.02,-0.14,0.15
29.130540132522583,0.01,-0.02,-0.09,0.09
29.131068229675293,-0.06,0.0,-0.06,0.08
29.131298065185547,0.05,-0.03,-0.03,0.06
29.133831024169922,0.05,0.01,-0.03,0.05
29.143898010253906,-0.08,0.01,-0.11,0.13
29.153975009918213,0.02,-0.02,-0.11,0.11
29.163748264312744,-0.04,-0.01,-0.01,0.04
29.17392110824585,0.09,-0.01,0.03,0.09
29.183765172958374,0.06,-0.02,-0.06,0.08
29.194621086120605,-0.14,0.03,-0.06,0.15
29.23118305206299,-0.04,0.01,-0.03,0.05
29.23143219947815,0.01,-0.03,-0.12,0.12
29.231659173965454,0.1,-0.02,-0.17,0.19
29.233263969421387,-0.01,-0.01,-0.13,0.13
29.243354320526123,-0.14,0.03,0.03,0.14
29.25345015525818,0.01,-0.04,0.1,0.1
29.263278007507324,0.08,-0.05,-0.01,0.09
29.27338218688965,0.02,0.01,-0.15,0.15
29.28310203552246,-0.09,0.05,-0.12,0.15
29.294016122817993,-0.12,0.0,-0.07,0.13
29.331825256347656,0.06,-0.03,0.0,0.06
29.332674980163574,0.16,-0.04,0.0,0.16
29.332909107208252,-0.01,-0.01,-0.15,0.15
29.333134174346924,-0.15,0.05,-0.16,0.22
29.342836141586304,-0.06,0.0,-0.03,0.06
29.352696180343628,0.11,-0.05,0.04,0.12
29.362682104110718,0.06,-0.03,0.01,0.06
29.37265110015869,-0.02,0.01,-0.1,0.1
29.382633209228516,-0.03,0.0,-0.1,0.1
29.39341926574707,-0.05,0.0,-0.1,0.11
29.431522130966187,0.06,-0.01,-0.16,0.17
29.432225227355957,0.01,-0.01,-0.03,0.03
29.43243718147278,-0.04,-0.01,0.11,0.11
29.432637214660645,-0.03,-0.01,0.04,0.05
29.442254066467285,0.02,0.01,-0.07,0.07
29.452389240264893,-0.01,0.0,-0.21,0.21
29.462103128433228,-0.04,0.01,-0.19,0.19
29.472204208374023,-0.04,-0.05,-0.07,0.09
29.481916189193726,0.13,-0.02,0.03,0.13
29.49294900894165,0.0,0.08,0.07,0.1
29.53238320350647,-0.07,0.0,-0.1,0.12
29.533167123794556,0.03,-0.06,-0.07,0.09
29.533400058746338,0.01,-0.04,-0.05,0.06
29.533623218536377,0.04,0.02,-0.17,0.17
29.54164719581604,-0.08,0.04,-0.11,0.14
29.554203033447266,-0.12,-0.01,0.05,0.13
29.561573028564453,0.08,-0.07,0.1,0.14
29.5715811252594,0.04,-0.01,-0.08,0.09
29.581310272216797,-0.03,0.04,-0.26,0.26
29.592305183410645,-0.07,0.01,-0.15,0.16
29.633211135864258,-0.05,-0.02,0.0,0.05
29.63394021987915,0.1,-0.06,0.04,0.12
29.63416624069214,0.11,0.01,0.05,0.12
29.634387969970703,-0.05,0.06,0.01,0.07
29.640954971313477,-0.1,0.01,-0.12,0.15
29.65283727645874,-0.04,-0.03,-0.17,0.17
29.660967111587524,0.15,-0.04,-0.12,0.19
29.670783042907715,0.09,-0.02,-0.12,0.15
29.681011199951172,-0.14,0.06,-0.1,0.18
29.69156312942505,-0.1,0.01,0.11,0.14
29.733081102371216,0.07,-0.07,0.12,0.15
29.733301162719727,0.07,0.0,-0.02,0.07
29.733525276184082,-0.1,0.01,-0.23,0.25
29.73372507095337,-0.12,0.03,-0.23,0.26
