time,ax,ay,az,atotal
0.010447978973388672,0.02,-0.01,-0.04,0.04
0.01877880096435547,0.04,0.0,-0.05,0.06
0.03130698204040527,0.04,0.01,-0.04,0.05
0.05179190635681152,0.05,0.01,-0.04,0.06
0.052182912826538086,0.05,0.0,-0.05,0.07
0.05843496322631836,0.04,0.0,-0.06,0.07
0.06821680068969727,0.03,0.0,-0.06,0.06
0.0788109302520752,0.02,0.0,-0.07,0.07
0.08826208114624023,0.02,0.0,-0.05,0.05
0.09824490547180176,-0.01,0.0,-0.06,0.06
0.10915708541870117,0.0,-0.01,-0.05,0.05
0.11893296241760254,-0.03,-0.02,-0.06,0.06
0.15578794479370117,-0.04,-0.02,-0.05,0.06
0.1562199592590332,-0.05,-0.02,-0.06,0.08
0.1565408706665039,-0.06,-0.02,-0.06,0.08
0.15793180465698242,-0.05,-0.03,-0.07,0.09
0.1677718162536621,-0.04,-0.03,-0.05,0.07
0.1777210235595703,-0.04,-0.02,-0.06,0.07
0.1876668930053711,-0.02,-0.02,-0.07,0.07
0.19832277297973633,-0.01,-0.02,-0.05,0.05
0.20780181884765625,0.01,-0.01,-0.05,0.05
0.21901512145996094,0.02,-0.01,-0.05,0.05
0.23222589492797852,0.04,0.0,-0.04,0.05
0.2576608657836914,0.06,0.01,-0.05,0.07
0.25829601287841797,0.06,0.0,-0.06,0.08
0.25864291191101074,0.05,0.0,-0.06,0.07
0.2676877975463867,0.04,0.0,-0.06,0.07
0.2772989273071289,0.03,-0.01,-0.06,0.06
0.28720808029174805,0.02,0.0,-0.07,0.07
0.2979269027709961,0.01,-0.01,-0.06,0.06
0.3077540397644043,-0.01,-0.01,-0.05,0.05
0.31775593757629395,-0.01,-0.01,-0.05,0.05
0.33269405364990234,-0.02,-0.01,-0.07,0.07
0.3583860397338867,-0.04,-0.01,-0.06,0.07
0.3587629795074463,-0.05,-0.02,-0.06,0.08
0.35910892486572266,-0.05,-0.02,-0.05,0.07
0.36704111099243164,-0.06,-0.02,-0.06,0.08
0.376680850982666,-0.05,-0.02,-0.06,0.08
0.3864729404449463,-0.03,-0.02,-0.06,0.06
0.39658403396606445,-0.01,-0.02,-0.05,0.05
0.40708303451538086,0.0,-0.01,-0.05,0.05
0.4165058135986328,0.02,-0.01,-0.04,0.04
0.43126678466796875,0.04,0.0,-0.04,0.05
0.46051788330078125,0.04,0.01,-0.05,0.06
0.46092891693115234,0.06,0.0,-0.06,0.08
0.46127796173095703,0.04,0.0,-0.06,0.07
0.4658808708190918,0.04,0.0,-0.06,0.07
0.4759488105773926,0.04,0.0,-0.06,0.07
0.4859449863433838,0.03,0.0,-0.05,0.05
0.4965348243713379,0.03,0.0,-0.06,0.06
0.5063259601593018,0.02,0.0,-0.06,0.06
0.5158219337463379,0.01,0.0,-0.06,0.06
0.530487060546875,-0.01,-0.01,-0.06,0.06
0.5595450401306152,-0.04,-0.02,-0.07,0.08
0.5598640441894531,-0.05,-0.02,-0.07,0.08
0.560187816619873,-0.05,-0.03,-0.07,0.09
0.5652828216552734,-0.05,-0.03,-0.06,0.08
0.5753388404846191,-0.05,-0.03,-0.06,0.08
0.5853769779205322,-0.04,-0.02,-0.05,0.06
0.5953168869018555,-0.01,-0.02,-0.04,0.04
0.6058039665222168,0.01,-0.02,-0.04,0.04
0.6153159141540527,0.01,0.0,-0.05,0.05
0.628464937210083,0.02,0.0,-0.05,0.05
0.6613078117370605,0.02,0.01,-0.05,0.05
0.6616349220275879,0.03,0.01,-0.05,0.05
0.6620068550109863,0.04,0.01,-0.06,0.07
0.664665937423706,0.05,0.01,-0.05,0.07
0.6747829914093018,0.05,0.0,-0.06,0.07
0.6851258277893066,0.04,-0.01,-0.05,0.06
0.6947469711303711,0.04,0.0,-0.06,0.07
0.7052698135375977,0.03,-0.01,-0.06,0.06
0.7147068977355957,0.01,-0.01,-0.07,0.07
0.7293357849121094,0.0,-0.02,-0.05,0.05
0.7349538803100586,-0.03,-0.02,-0.05,0.06
0.7610189914703369,-0.05,-0.02,-0.06,0.08
0.7613019943237305,-0.05,-0.02,-0.06,0.08
0.7639927864074707,-0.05,-0.02,-0.06,0.08
0.774040937423706,-0.05,-0.02,-0.06,0.08
0.7839818000793457,-0.05,-0.02,-0.06,0.08
0.7940809726715088,-0.04,-0.02,-0.06,0.07
0.8047308921813965,-0.03,-0.02,-0.05,0.06
0.8140499591827393,-0.01,-0.01,-0.05,0.05
0.8275198936462402,0.0,-0.01,-0.03,0.03
0.8346309661865234,0.02,0.0,-0.05,0.05
0.8600080013275146,0.03,0.0,-0.05,0.05
0.860400915145874,0.05,0.0,-0.07,0.08
0.8635349273681641,0.06,0.01,-0.06,0.08
0.8734409809112549,0.06,0.0,-0.05,0.07
0.8834879398345947,0.05,-0.01,-0.05,0.07
0.8938369750976562,0.05,-0.01,-0.06,0.07
0.9032230377197266,0.04,-0.01,-0.06,0.07
0.9140238761901855,0.03,-0.01,-0.05,0.05
0.926948070526123,0.01,-0.01,-0.06,0.06
0.933696985244751,0.0,-0.01,-0.06,0.06
0.9612729549407959,-0.04,-0.01,-0.05,0.06
0.9616138935089111,-0.06,-0.01,-0.05,0.07
0.9628169536590576,-0.06,-0.01,-0.06,0.08
0.9730679988861084,-0.06,-0.02,-0.06,0.08
0.9827370643615723,-0.06,-0.02,-0.06,0.08
0.9933509826660156,-0.05,-0.02,-0.05,0.07
1.002798080444336,-0.04,-0.01,-0.05,0.06
1.012803077697754,-0.02,-0.01,-0.06,0.06
1.0263328552246094,0.0,-0.01,-0.05,0.05
1.0326790809631348,0.02,-0.01,-0.04,0.04
1.063025951385498,0.02,-0.01,-0.06,0.06
1.063605785369873,0.04,-0.01,-0.06,0.07
1.0639100074768066,0.05,-0.01,-0.06,0.07
1.0721960067749023,0.07,-0.01,-0.05,0.08
1.082292079925537,0.06,0.0,-0.05,0.07
1.0923569202423096,0.05,0.01,-0.05,0.07
1.1027870178222656,0.05,0.01,-0.05,0.07
1.1123318672180176,0.03,0.01,-0.06,0.06
1.1256818771362305,0.01,0.0,-0.05,0.05
1.1322309970855713,-0.01,-0.01,-0.07,0.07
1.1649398803710938,-0.03,-0.01,-0.06,0.06
1.1652817726135254,-0.05,-0.01,-0.06,0.07
1.1656079292297363,-0.05,-0.02,-0.06,0.08
1.1716461181640625,-0.06,-0.02,-0.06,0.08
1.181689977645874,-0.05,-0.02,-0.04,0.06
1.1916499137878418,-0.05,-0.01,-0.05,0.07
1.201498031616211,-0.03,-0.02,-0.05,0.06
1.212235927581787,-0.02,-0.02,-0.05,0.05
1.224534034729004,-0.01,-0.02,-0.05,0.05
1.2315077781677246,0.0,-0.03,-0.05,0.05
1.2637319564819336,0.02,-0.02,-0.06,0.06
1.264112949371338,0.03,-0.01,-0.06,0.06
1.2645058631896973,0.04,0.0,-0.05,0.06
1.2709519863128662,0.05,0.0,-0.05,0.07
1.2811188697814941,0.05,0.01,-0.06,0.07
1.2910981178283691,0.06,0.0,-0.05,0.07
1.3009729385375977,0.05,0.01,-0.05,0.07
1.3116178512573242,0.03,0.01,-0.05,0.05
1.3242669105529785,0.01,0.0,-0.05,0.05
1.3310308456420898,0.0,-0.01,-0.06,0.06
1.364914894104004,-0.02,-0.01,-0.07,0.07
1.3652758598327637,-0.03,-0.02,-0.07,0.07
1.3656530380249023,-0.04,-0.02,-0.06,0.07
1.3703908920288086,-0.05,-0.01,-0.05,0.07
1.380465030670166,-0.05,-0.03,-0.04,0.07
1.3903789520263672,-0.04,-0.02,-0.05,0.06
1.4007458686828613,-0.03,-0.02,-0.05,0.06
1.410247802734375,-0.03,-0.03,-0.05,0.06
1.4236350059509277,-0.04,-0.03,-0.05,0.07
1.4304399490356445,-0.01,-0.02,-0.05,0.05
1.465404987335205,0.0,0.0,-0.04,0.04
1.4657819271087646,0.01,0.0,-0.05,0.05
1.466181993484497,0.03,0.0,-0.06,0.06
1.4707870483398438,0.04,0.0,-0.05,0.06
1.479984998703003,0.06,0.0,-0.06,0.08
1.4900469779968262,0.06,0.01,-0.06,0.08
1.499758005142212,0.06,0.01,-0.05,0.07
1.5097479820251465,0.04,0.0,-0.06,0.07
1.5488080978393555,0.03,0.0,-0.07,0.07
1.5491280555725098,0.02,0.0,-0.07,0.07
1.5498390197753906,0.01,-0.01,-0.06,0.06
1.5501508712768555,-0.02,-0.01,-0.06,0.06
1.5595049858093262,-0.03,-0.02,-0.05,0.06
1.5690388679504395,-0.03,-0.02,-0.05,0.06
1.5792961120605469,-0.04,-0.02,-0.06,0.07
1.5892977714538574,-0.05,-0.02,-0.05,0.07
1.5990679264068604,-0.05,-0.02,-0.05,0.07
1.6092729568481445,-0.04,-0.03,-0.06,0.07
1.6483550071716309,-0.04,-0.03,-0.06,0.07
1.649055004119873,-0.04,-0.02,-0.06,0.07
1.6494550704956055,-0.02,-0.02,-0.05,0.05
1.6498098373413086,0.0,-0.01,-0.06,0.06
1.658815860748291,0.01,0.01,-0.07,0.07
1.6686429977416992,0.03,0.0,-0.05,0.05
1.678581953048706,0.04,0.0,-0.05,0.06
1.6885859966278076,0.05,0.01,-0.04,0.06
1.6986029148101807,0.06,0.0,-0.05,0.07
1.7084770202636719,0.05,0.0,-0.05,0.07
1.7480120658874512,0.05,0.0,-0.06,0.07
1.7487168312072754,0.03,0.0,-0.07,0.07
1.7491378784179688,0.02,-0.01,-0.06,0.06
1.7495028972625732,0.01,-0.01,-0.07,0.07
1.758462905883789,0.0,-0.01,-0.05,0.05
1.768150806427002,-0.02,-0.02,-0.06,0.06
1.7780869007110596,-0.03,-0.01,-0.06,0.06
1.7878499031066895,-0.03,-0.02,-0.06,0.06
1.797968864440918,-0.05,-0.02,-0.05,0.07
1.8080520629882812,-0.05,-0.03,-0.05,0.07
1.8476979732513428,-0.04,-0.02,-0.05,0.06
1.848315954208374,-0.03,-0.02,-0.05,0.06
1.848578929901123,-0.02,-0.02,-0.05,0.05
1.8488519191741943,-0.02,-0.02,-0.06,0.06
1.8574490547180176,0.01,-0.01,-0.04,0.04
1.8678297996520996,0.02,-0.01,-0.05,0.05
1.8777379989624023,0.03,0.0,-0.05,0.05
1.8874130249023438,0.05,0.01,-0.05,0.07
1.897258996963501,0.05,0.01,-0.05,0.07
1.9070720672607422,0.05,0.01,-0.05,0.07
1.920623779296875,0.05,-0.01,-0.05,0.07
1.9487829208374023,0.04,0.0,-0.06,0.07
1.9491000175476074,0.03,0.0,-0.05,0.05
1.9494309425354004,0.02,-0.01,-0.06,0.06
1.9572358131408691,0.01,-0.01,-0.06,0.06
1.9668641090393066,-0.01,-0.01,-0.05,0.05
1.976759910583496,-0.03,-0.01,-0.05,0.05
1.9868531227111816,-0.04,-0.02,-0.05,0.06
1.9967989921569824,-0.04,-0.03,-0.06,0.07
2.0065441131591797,-0.05,-0.02,-0.06,0.08
2.0200159549713135,-0.05,-0.03,-0.06,0.08
2.049941062927246,-0.03,-0.02,-0.06,0.06
2.050297975540161,-0.02,-0.02,-0.06,0.06
2.0506091117858887,-0.01,-0.02,-0.05,0.05
2.0561599731445312,0.0,-0.02,-0.05,0.05
2.0662388801574707,0.01,-0.01,-0.05,0.05
2.076353073120117,0.02,0.0,-0.06,0.06
2.0861918926239014,0.03,0.01,-0.06,0.06
2.096235990524292,0.04,0.0,-0.05,0.06
2.1059927940368652,0.04,0.0,-0.06,0.07
2.11967396736145,0.03,0.0,-0.05,0.05
2.1499037742614746,0.04,-0.01,-0.06,0.07
2.150209903717041,0.04,-0.01,-0.05,0.06
2.150507926940918,0.01,-0.01,-0.06,0.06
2.1560940742492676,0.02,-0.02,-0.05,0.05
2.1658987998962402,0.01,0.0,-0.06,0.06
2.175434112548828,-0.01,-0.02,-0.06,0.06
2.185590982437134,-0.03,-0.02,-0.05,0.06
2.195589065551758,-0.03,-0.01,-0.07,0.07
2.2061848640441895,-0.04,-0.02,-0.06,0.07
2.218620777130127,-0.04,-0.02,-0.05,0.06
2.249545097351074,-0.04,-0.02,-0.05,0.06
2.249814987182617,-0.03,-0.02,-0.05,0.06
2.2500739097595215,-0.03,-0.03,-0.05,0.06
2.2549948692321777,-0.01,-0.02,-0.05,0.05
2.265181064605713,0.0,-0.01,-0.06,0.06
2.2749290466308594,0.01,-0.01,-0.06,0.06
2.285033941268921,0.03,0.0,-0.06,0.06
2.2950239181518555,0.04,0.0,-0.05,0.06
2.3048439025878906,0.04,-0.01,-0.05,0.06
2.3182640075683594,0.04,-0.01,-0.05,0.06
2.351469039916992,0.04,-0.01,-0.06,0.07
2.3518028259277344,0.04,0.0,-0.05,0.06
2.352097988128662,0.03,0.0,-0.06,0.06
2.354443073272705,0.02,-0.01,-0.05,0.05
2.3645668029785156,0.01,-0.01,-0.06,0.06
2.3742990493774414,0.0,0.0,-0.06,0.06
2.3843069076538086,-0.03,-0.01,-0.06,0.06
2.394357919692993,-0.04,-0.02,-0.06,0.07
2.404304027557373,-0.05,-0.02,-0.05,0.07
2.4166409969329834,-0.05,-0.02,-0.05,0.07
2.4518089294433594,-0.04,-0.02,-0.05,0.06
2.452104091644287,-0.03,-0.02,-0.05,0.06
2.4523239135742188,-0.03,-0.02,-0.05,0.06
2.4536728858947754,-0.01,-0.02,-0.05,0.05
2.464324951171875,0.0,-0.02,-0.04,0.04
2.4737091064453125,0.01,-0.01,-0.05,0.05
2.483668804168701,0.03,-0.01,-0.05,0.05
2.493804931640625,0.03,0.0,-0.06,0.06
2.5036520957946777,0.04,0.0,-0.05,0.06
2.5163278579711914,0.03,0.01,-0.06,0.06
2.552125930786133,0.04,0.0,-0.04,0.05
2.552422046661377,0.04,0.0,-0.05,0.06
2.5527069568634033,0.03,0.0,-0.05,0.05
2.5532188415527344,0.02,0.0,-0.07,0.07
2.56327486038208,0.01,-0.01,-0.05,0.05
2.5737099647521973,0.0,0.0,-0.06,0.06
2.5832560062408447,-0.02,-0.01,-0.06,0.06
2.592909812927246,-0.02,-0.02,-0.06,0.06
2.6031219959259033,-0.03,-0.03,-0.04,0.05
2.6157398223876953,-0.04,-0.02,-0.05,0.06
2.6515579223632812,-0.04,-0.02,-0.05,0.06
2.651869773864746,-0.03,-0.02,-0.06,0.06
2.652153968811035,-0.02,-0.02,-0.06,0.06
2.652453899383545,-0.02,-0.02,-0.06,0.06
2.6627519130706787,-0.01,-0.02,-0.05,0.05
2.672513008117676,0.0,-0.01,-0.05,0.05
2.6825850009918213,0.01,0.0,-0.05,0.05
2.6923089027404785,0.02,0.0,-0.06,0.06
2.702476978302002,0.03,-0.01,-0.06,0.06
2.714996814727783,0.03,0.0,-0.05,0.05
2.722343921661377,0.04,0.0,-0.06,0.07
2.7510647773742676,0.05,0.0,-0.05,0.07
2.7513561248779297,0.04,0.0,-0.05,0.06
2.7521469593048096,0.03,-0.01,-0.06,0.06
2.761899948120117,0.02,-0.01,-0.06,0.06
2.7719459533691406,0.01,-0.01,-0.05,0.05
2.781986951828003,0.0,-0.01,-0.07,0.07
2.791731834411621,-0.02,-0.01,-0.06,0.06
2.8019747734069824,-0.03,-0.02,-0.05,0.06
2.814393997192383,-0.04,-0.02,-0.05,0.06
2.8215770721435547,-0.04,-0.02,-0.05,0.06
2.851931095123291,-0.04,-0.01,-0.06,0.07
2.8524539470672607,-0.03,-0.02,-0.06,0.06
2.8527450561523438,-0.04,-0.02,-0.05,0.06
2.8617348670959473,-0.03,-0.01,-0.05,0.05
2.8712968826293945,-0.02,-0.02,-0.05,0.05
2.8815040588378906,0.0,-0.01,-0.06,0.06
2.8913300037384033,0.02,-0.01,-0.06,0.06
2.9012680053710938,0.04,-0.01,-0.05,0.06
2.913757801055908,0.04,0.0,-0.05,0.06
2.9211409091949463,0.05,0.0,-0.06,0.07
2.951892852783203,0.05,0.0,-0.05,0.07
2.952131986618042,0.05,0.0,-0.05,0.07
2.952427864074707,0.04,0.0,-0.06,0.07
2.961091995239258,0.03,0.0,-0.06,0.06
2.9706499576568604,0.01,0.0,-0.06,0.06
2.9808268547058105,-0.01,-0.01,-0.06,0.06
2.9910809993743896,-0.02,-0.01,-0.06,0.06
3.000654935836792,-0.03,-0.01,-0.06,0.06
3.0133938789367676,-0.04,-0.02,-0.05,0.06
3.0205299854278564,-0.05,-0.02,-0.05,0.07
3.0527780055999756,-0.04,-0.02,-0.06,0.07
3.053122043609619,-0.03,-0.02,-0.04,0.05
3.05344295501709,-0.04,-0.03,-0.06,0.07
3.0602707862854004,-0.02,-0.02,-0.05,0.05
3.0701239109039307,-0.02,-0.02,-0.04,0.04
3.0801119804382324,0.0,-0.02,-0.05,0.05
3.090066909790039,0.01,-0.01,-0.06,0.06
3.1000571250915527,0.02,-0.01,-0.04,0.04
3.1122488975524902,0.04,0.0,-0.06,0.07
3.1199488639831543,0.04,0.0,-0.05,0.06
3.153533935546875,0.05,0.0,-0.06,0.07
3.153784990310669,0.04,0.0,-0.06,0.07
3.1540608406066895,0.03,0.0,-0.04,0.05
3.159621000289917,0.02,0.0,-0.05,0.05
3.169588088989258,0.02,0.0,-0.05,0.05
3.1794819831848145,0.02,0.0,-0.05,0.05
3.1894679069519043,-0.01,0.0,-0.07,0.07
3.1994409561157227,-0.02,-0.01,-0.06,0.06
3.210880994796753,-0.02,-0.01,-0.06,0.06
3.2198610305786133,-0.03,-0.01,-0.06,0.06
3.2529568672180176,-0.03,-0.02,-0.06,0.06
3.2531979084014893,-0.03,-0.02,-0.06,0.06
3.2534728050231934,-0.04,-0.02,-0.06,0.07
3.2587809562683105,-0.02,-0.03,-0.06,0.06
3.268878936767578,-0.02,-0.03,-0.05,0.06
3.278808116912842,-0.02,-0.02,-0.05,0.05
3.2888131141662598,0.0,-0.01,-0.05,0.05
3.298865795135498,0.01,0.0,-0.05,0.05
3.3108129501342773,0.02,0.0,-0.05,0.05
3.318830966949463,0.02,0.0,-0.04,0.04
3.3546249866485596,0.04,0.0,-0.06,0.07
3.354930877685547,0.03,0.01,-0.05,0.05
3.3551278114318848,0.03,0.01,-0.05,0.05
3.358799934387207,0.04,0.0,-0.06,0.07
3.368420124053955,0.04,0.0,-0.06,0.07
3.3780670166015625,0.03,0.0,-0.06,0.06
3.3882429599761963,0.01,-0.01,-0.06,0.06
3.3981969356536865,0.0,-0.02,-0.06,0.06
3.435934066772461,-0.01,-0.01,-0.05,0.05
3.4362049102783203,-0.02,-0.01,-0.06,0.06
3.4364590644836426,-0.03,-0.02,-0.06,0.06
3.437769889831543,-0.04,-0.02,-0.05,0.06
3.4477379322052,-0.04,-0.02,-0.05,0.06
3.457653045654297,-0.04,-0.02,-0.06,0.07
3.4677438735961914,-0.04,-0.03,-0.05,0.07
3.477494955062866,-0.03,-0.02,-0.05,0.06
3.487632989883423,-0.01,-0.02,-0.05,0.05
3.4976110458374023,0.0,-0.02,-0.06,0.06
3.535888910293579,0.02,-0.02,-0.05,0.05
3.536151885986328,0.03,0.0,-0.05,0.05
3.5363879203796387,0.04,0.0,-0.05,0.06
3.5373268127441406,0.05,0.01,-0.04,0.06
3.547186851501465,0.04,0.0,-0.04,0.05
3.557116985321045,0.04,0.0,-0.05,0.06
3.5672030448913574,0.03,-0.01,-0.06,0.06
3.5768980979919434,0.02,-0.01,-0.06,0.06
3.586960792541504,0.02,-0.01,-0.06,0.06
3.597321033477783,0.0,-0.01,-0.06,0.06
3.6372458934783936,-0.01,0.0,-0.06,0.06
3.637692928314209,-0.03,-0.01,-0.06,0.06
3.637962818145752,-0.04,-0.01,-0.04,0.05
3.638199806213379,-0.04,-0.01,-0.06,0.07
3.646735906600952,-0.04,-0.02,-0.06,0.07
3.6565780639648438,-0.04,-0.02,-0.05,0.06
3.666555881500244,-0.03,-0.02,-0.06,0.06
3.676352024078369,-0.02,-0.03,-0.05,0.06
3.686479091644287,-0.01,-0.03,-0.04,0.05
3.6962900161743164,0.0,-0.02,-0.05,0.05
3.709146022796631,0.01,-0.01,-0.04,0.04
3.73887300491333,0.03,-0.01,-0.06,0.06
3.739163875579834,0.03,0.0,-0.05,0.05
3.739435911178589,0.04,0.0,-0.06,0.07
3.7459769248962402,0.04,0.01,-0.04,0.05
3.756002902984619,0.03,0.0,-0.06,0.06
3.7659521102905273,0.04,0.0,-0.04,0.05
3.7767391204833984,0.04,0.0,-0.06,0.07
3.7857449054718018,0.02,0.0,-0.06,0.06
3.7956700325012207,0.01,0.0,-0.05,0.05
3.8082470893859863,0.0,0.0,-0.05,0.05
3.8383378982543945,-0.02,-0.01,-0.06,0.06
3.838599920272827,-0.03,-0.02,-0.06,0.06
3.838862895965576,-0.04,-0.02,-0.07,0.08
3.845453977584839,-0.05,-0.03,-0.05,0.07
3.8553199768066406,-0.04,-0.03,-0.05,0.07
3.8652899265289307,-0.04,-0.03,-0.06,0.07
3.8752098083496094,-0.03,-0.03,-0.06,0.07
3.8857839107513428,-0.01,-0.02,-0.05,0.05
3.8950889110565186,0.0,-0.02,-0.06,0.06
3.9071860313415527,0.0,-0.01,-0.06,0.06
3.9387729167938232,0.01,-0.01,-0.04,0.04
3.9390759468078613,0.02,0.0,-0.05,0.05
3.93928599357605,0.02,0.0,-0.05,0.05
3.944643974304199,0.03,0.0,-0.06,0.06
3.9547338485717773,0.04,0.0,-0.06,0.07
3.964859962463379,0.05,0.01,-0.07,0.08
3.974674940109253,0.04,0.0,-0.05,0.06
3.984640121459961,0.02,0.0,-0.05,0.05
3.9944779872894287,0.02,-0.01,-0.06,0.06
4.0063629150390625,0.01,-0.01,-0.06,0.06
4.038463115692139,-0.01,-0.01,-0.06,0.06
4.038724899291992,-0.02,-0.02,-0.06,0.06
4.038945913314819,-0.03,-0.02,-0.06,0.06
4.0440449714660645,-0.04,-0.02,-0.05,0.06
4.054228782653809,-0.05,-0.02,-0.06,0.08
4.064117908477783,-0.04,-0.02,-0.06,0.07
4.073959827423096,-0.04,-0.01,-0.06,0.07
4.084043025970459,-0.03,-0.01,-0.05,0.05
4.094417095184326,-0.02,-0.02,-0.06,0.06
4.1066648960113525,-0.01,-0.01,-0.06,0.06
4.139989852905273,0.0,-0.01,-0.04,0.04
4.140293121337891,0.01,0.0,-0.05,0.05
4.140556812286377,0.03,0.0,-0.06,0.06
4.144335985183716,0.04,0.01,-0.04,0.05
4.153618812561035,0.04,0.01,-0.06,0.07
4.1634299755096436,0.04,0.0,-0.05,0.06
4.173635005950928,0.03,0.0,-0.05,0.05
4.183388948440552,0.04,-0.01,-0.05,0.06
4.193497896194458,0.03,-0.02,-0.05,0.06
4.2054619789123535,0.02,-0.02,-0.06,0.06
4.2413458824157715,0.0,-0.01,-0.06,0.06
4.241576910018921,-0.02,-0.01,-0.06,0.06
4.241860866546631,-0.03,-0.02,-0.05,0.06
4.242764949798584,-0.05,-0.02,-0.05,0.07
4.252913951873779,-0.05,-0.01,-0.07,0.08
4.262778997421265,-0.05,-0.02,-0.07,0.08
4.272830963134766,-0.05,-0.01,-0.05,0.07
4.282785892486572,-0.05,-0.02,-0.05,0.07
4.293080806732178,-0.04,-0.02,-0.05,0.06
4.304611921310425,-0.02,-0.02,-0.05,0.05
4.342209815979004,0.0,-0.01,-0.05,0.05
4.342706918716431,0.02,-0.01,-0.06,0.06
4.342959880828857,0.04,-0.01,-0.05,0.06
4.343226909637451,0.04,0.0,-0.04,0.05
4.352430820465088,0.05,0.0,-0.05,0.07
4.362276077270508,0.06,0.0,-0.06,0.08
4.3722569942474365,0.05,0.0,-0.06,0.07
4.382227897644043,0.04,0.0,-0.06,0.07
4.392161846160889,0.03,0.0,-0.06,0.06
4.404364109039307,0.02,0.0,-0.04,0.04
4.441280841827393,0.0,0.0,-0.07,0.07
4.441543102264404,-0.01,-0.01,-0.07,0.07
4.441991806030273,-0.03,-0.01,-0.07,0.07
4.4422688484191895,-0.04,-0.02,-0.06,0.07
4.451941013336182,-0.05,-0.02,-0.06,0.08
4.4617600440979,-0.06,-0.02,-0.05,0.08
4.471713066101074,-0.05,-0.02,-0.06,0.08
4.481456995010376,-0.04,-0.01,-0.05,0.06
4.491533994674683,-0.03,-0.01,-0.06,0.06
4.5033278465271,-0.03,-0.02,-0.06,0.06
4.540679931640625,-0.01,-0.03,-0.06,0.06
4.54099178314209,0.0,-0.02,-0.05,0.05
4.541502952575684,0.02,-0.01,-0.06,0.06
4.541765928268433,0.04,-0.01,-0.05,0.06
4.551046848297119,0.05,-0.01,-0.07,0.08
4.561139106750488,0.06,0.0,-0.05,0.07
4.571494102478027,0.05,0.01,-0.07,0.08
4.5807859897613525,0.05,0.01,-0.05,0.07
4.590827941894531,0.03,0.01,-0.06,0.06
4.602694988250732,0.03,0.01,-0.06,0.06
4.611133098602295,0.01,0.01,-0.06,0.06
4.638761043548584,-0.01,0.0,-0.06,0.06
4.639046907424927,-0.02,-0.01,-0.07,0.07
4.640499114990234,-0.03,-0.01,-0.06,0.06
4.650502920150757,-0.04,-0.01,-0.06,0.07
4.660310983657837,-0.04,-0.02,-0.07,0.08
4.670773029327393,-0.04,-0.03,-0.06,0.07
4.6801769733428955,-0.04,-0.02,-0.06,0.07
4.6902008056640625,-0.04,-0.02,-0.05,0.06
4.702225923538208,-0.02,-0.03,-0.05,0.06
4.710226058959961,-0.01,-0.02,-0.05,0.05
4.740725994110107,-0.01,-0.01,-0.04,0.04
4.740983009338379,0.02,-0.01,-0.06,0.06
4.741191864013672,0.03,-0.01,-0.06,0.06
4.74990701675415,0.03,0.0,-0.05,0.05
4.7598490715026855,0.04,0.01,-0.05,0.06
4.769985914230347,0.05,0.01,-0.06,0.07
4.779668807983398,0.04,0.01,-0.05,0.06
4.789698123931885,0.03,0.01,-0.06,0.06
4.801541805267334,0.03,0.0,-0.05,0.05
4.809569835662842,0.02,0.0,-0.05,0.05
4.841295957565308,0.0,0.0,-0.04,0.04
4.8415679931640625,-0.01,-0.01,-0.05,0.05
4.841814041137695,-0.02,-0.01,-0.06,0.06
4.849329948425293,-0.03,-0.02,-0.05,0.06
4.859308958053589,-0.04,-0.02,-0.07,0.08
4.86929988861084,-0.05,-0.02,-0.05,0.07
4.879430770874023,-0.05,-0.03,-0.05,0.07
4.889470100402832,-0.05,-0.03,-0.07,0.09
4.900994777679443,-0.04,-0.03,-0.06,0.07
4.909071922302246,-0.03,-0.02,-0.06,0.06
4.9407639503479,0.0,-0.01,-0.05,0.05
4.940973997116089,0.01,-0.01,-0.05,0.05
4.941238880157471,0.02,0.0,-0.04,0.04
4.948714971542358,0.03,0.01,-0.05,0.05
4.958626985549927,0.04,0.01,-0.06,0.07
4.968612909317017,0.04,0.01,-0.04,0.05
4.978540897369385,0.04,0.01,-0.05,0.06
4.988600969314575,0.04,0.0,-0.06,0.07
5.000239849090576,0.04,0.0,-0.05,0.06
5.008452892303467,0.04,0.0,-0.06,0.07
5.042119026184082,0.02,0.0,-0.05,0.05
5.042430877685547,0.0,-0.02,-0.07,0.07
5.042717933654785,-0.01,-0.01,-0.06,0.06
5.048120021820068,-0.02,-0.02,-0.06,0.06
5.058049917221069,-0.03,-0.02,-0.06,0.06
5.068019866943359,-0.05,-0.02,-0.05,0.07
5.07787299156189,-0.05,-0.02,-0.05,0.07
5.088269948959351,-0.06,-0.01,-0.06,0.08
5.0997889041900635,-0.04,-0.02,-0.04,0.06
5.107810974121094,-0.03,-0.02,-0.05,0.06
5.142395973205566,-0.03,-0.02,-0.06,0.06
5.142709970474243,-0.01,-0.01,-0.05,0.05
5.142974853515625,0.01,-0.01,-0.04,0.04
5.147317886352539,0.01,-0.01,-0.06,0.06
5.1574859619140625,0.02,0.0,-0.05,0.05
5.1673359870910645,0.04,0.0,-0.05,0.06
5.1773247718811035,0.05,0.01,-0.05,0.07
5.187640905380249,0.06,0.0,-0.05,0.07
5.198828935623169,0.05,0.0,-0.05,0.07
5.207680940628052,0.04,0.0,-0.05,0.06
5.2424399852752686,0.02,0.0,-0.05,0.05
5.242717981338501,0.01,-0.01,-0.07,0.07
5.242955923080444,0.0,-0.01,-0.06,0.06
5.247124910354614,-0.02,0.0,-0.05,0.05
5.2569499015808105,-0.03,-0.02,-0.06,0.06
5.266619920730591,-0.03,-0.02,-0.05,0.06
5.276802062988281,-0.04,-0.01,-0.06,0.07
5.286746025085449,-0.05,-0.02,-0.06,0.08
5.326814889907837,-0.03,-0.02,-0.06,0.06
5.327085018157959,-0.04,-0.03,-0.05,0.07
5.327294826507568,-0.02,-0.03,-0.05,0.06
5.327528953552246,-0.01,-0.02,-0.05,0.05
5.336358070373535,0.0,-0.01,-0.06,0.06
5.3462889194488525,0.02,-0.01,-0.05,0.05
5.356299877166748,0.03,0.0,-0.05,0.05
5.366046905517578,0.04,0.0,-0.05,0.06
5.37617301940918,0.03,0.01,-0.05,0.05
5.386037826538086,0.04,0.01,-0.05,0.06
5.427579879760742,0.03,0.0,-0.06,0.06
5.427802085876465,0.03,0.0,-0.05,0.05
5.4279749393463135,0.03,0.0,-0.05,0.05
5.42820405960083,0.02,-0.01,-0.05,0.05
5.43572998046875,0.01,-0.01,-0.07,0.07
5.4457268714904785,0.0,-0.01,-0.06,0.06
5.455968856811523,-0.02,-0.01,-0.05,0.05
5.465559005737305,-0.03,-0.02,-0.05,0.06
5.475515842437744,-0.03,-0.02,-0.06,0.06
5.485467910766602,-0.05,-0.02,-0.05,0.07
5.52634596824646,-0.05,-0.02,-0.05,0.07
5.526597023010254,-0.03,-0.03,-0.05,0.06
5.526854038238525,-0.02,-0.01,-0.06,0.06
5.527091979980469,-0.02,-0.02,-0.05,0.05
5.535048007965088,0.0,-0.01,-0.05,0.05
5.545011043548584,0.01,-0.01,-0.05,0.05
5.555085897445679,0.02,0.0,-0.05,0.05
5.564907073974609,0.04,0.01,-0.05,0.06
5.574886798858643,0.03,0.01,-0.05,0.05
5.584898948669434,0.04,0.01,-0.05,0.06
5.596693992614746,0.04,0.0,-0.05,0.06
5.626810073852539,0.04,0.0,-0.06,0.07
5.6269919872283936,0.04,0.0,-0.06,0.07
5.62720799446106,0.03,0.0,-0.06,0.06
5.634512901306152,0.01,0.0,-0.05,0.05
5.64455509185791,0.0,-0.01,-0.06,0.06
5.654525995254517,-0.01,-0.02,-0.06,0.06
5.664853096008301,-0.02,-0.01,-0.05,0.05
5.674474000930786,-0.05,-0.02,-0.05,0.07
5.684194087982178,-0.05,-0.01,-0.06,0.07
5.69595193862915,-0.05,-0.01,-0.06,0.07
5.728242874145508,-0.04,-0.01,-0.06,0.07
5.728440999984741,-0.04,-0.01,-0.06,0.07
5.728714942932129,-0.03,-0.02,-0.05,0.06
5.733745098114014,-0.01,-0.02,-0.05,0.05
5.743908882141113,0.0,-0.02,-0.04,0.04
5.753902912139893,0.01,-0.01,-0.06,0.06
5.763753890991211,0.03,-0.01,-0.05,0.05
5.774184942245483,0.05,0.0,-0.06,0.07
5.783514976501465,0.06,0.0,-0.06,0.08
5.795615911483765,0.05,0.0,-0.06,0.07
5.828632831573486,0.06,0.0,-0.06,0.08
5.828877925872803,0.04,0.01,-0.06,0.07
5.829113960266113,0.03,0.0,-0.06,0.06
5.833553791046143,0.02,0.0,-0.05,0.05
5.8433990478515625,0.0,-0.01,-0.06,0.06
5.8534770011901855,-0.01,-0.02,-0.06,0.06
5.86336088180542,-0.02,-0.02,-0.06,0.06
5.873193979263306,-0.03,-0.01,-0.05,0.05
5.883013963699341,-0.05,-0.02,-0.05,0.07
5.89502477645874,-0.05,-0.02,-0.05,0.07
5.9290008544921875,-0.04,-0.02,-0.06,0.07
5.92925500869751,-0.04,-0.01,-0.05,0.06
5.929429054260254,-0.04,-0.01,-0.05,0.06
5.932605981826782,-0.02,-0.01,-0.04,0.04
5.942683935165405,0.0,-0.01,-0.05,0.05
5.952655792236328,0.02,0.0,-0.05,0.05
5.962573051452637,0.04,0.0,-0.06,0.07
5.972603797912598,0.04,-0.01,-0.05,0.06
5.982774972915649,0.05,0.0,-0.06,0.07
5.994272947311401,0.05,0.0,-0.06,0.07
6.029430866241455,0.04,0.0,-0.05,0.06
6.029611110687256,0.04,0.0,-0.05,0.06
6.029862880706787,0.03,0.01,-0.06,0.06
6.03247594833374,0.02,0.01,-0.06,0.06
6.042196989059448,0.01,0.0,-0.05,0.05
6.051755905151367,-0.01,-0.01,-0.06,0.06
6.062016010284424,-0.02,-0.01,-0.05,0.05
6.07227087020874,-0.03,-0.01,-0.06,0.06
6.081883907318115,-0.04,-0.01,-0.06,0.07
6.093421936035156,-0.04,-0.01,-0.05,0.06
6.128994941711426,-0.04,-0.01,-0.05,0.06
6.129205942153931,-0.04,-0.01,-0.06,0.07
6.129395008087158,-0.04,-0.02,-0.06,0.07
6.131460905075073,-0.02,-0.01,-0.05,0.05
6.141779899597168,-0.01,-0.01,-0.07,0.07
6.151363849639893,0.0,-0.01,-0.05,0.05
6.1613609790802,0.02,-0.01,-0.06,0.06
6.171619892120361,0.03,0.0,-0.05,0.05
6.181562900543213,0.04,0.0,-0.06,0.07
6.192866802215576,0.04,0.01,-0.05,0.06
6.229169845581055,0.05,0.0,-0.06,0.07
6.22936487197876,0.05,0.0,-0.05,0.07
6.229595899581909,0.04,0.01,-0.06,0.07
6.230838775634766,0.03,0.0,-0.07,0.07
6.240936994552612,0.01,0.01,-0.07,0.07
6.250622987747192,-0.01,0.0,-0.06,0.06
6.260777950286865,-0.02,-0.01,-0.06,0.06
6.2708899974823,-0.03,-0.01,-0.06,0.06
6.280675888061523,-0.04,-0.02,-0.06,0.07
6.292140960693359,-0.05,-0.02,-0.06,0.08
6.329617977142334,-0.05,-0.01,-0.04,0.06
6.329833030700684,-0.05,-0.02,-0.04,0.06
6.330039978027344,-0.04,-0.02,-0.05,0.06
6.33043098449707,-0.03,-0.02,-0.06,0.06
6.3402979373931885,-0.01,-0.01,-0.05,0.05
6.349955081939697,0.0,-0.01,-0.05,0.05
6.360224962234497,0.01,-0.01,-0.06,0.06
6.369924068450928,0.03,-0.01,-0.06,0.06
6.380086898803711,0.04,-0.01,-0.05,0.06
6.39172887802124,0.05,0.0,-0.06,0.07
6.429967880249023,0.05,0.0,-0.05,0.07
6.430304050445557,0.05,0.01,-0.05,0.07
6.430514812469482,0.04,0.01,-0.06,0.07
6.430706024169922,0.03,0.01,-0.06,0.06
6.439754009246826,0.02,0.0,-0.06,0.06
6.449886798858643,0.0,0.01,-0.06,0.06
6.459591865539551,-0.02,-0.01,-0.06,0.06
6.469357967376709,-0.03,-0.01,-0.05,0.05
6.479460954666138,-0.03,-0.02,-0.05,0.06
6.490894794464111,-0.03,-0.02,-0.06,0.06
6.49960994720459,-0.05,-0.02,-0.07,0.08
6.5307230949401855,-0.04,-0.03,-0.05,0.07
6.530922889709473,-0.04,-0.02,-0.05,0.06
6.531161785125732,-0.03,-0.03,-0.04,0.05
6.539089918136597,-0.02,-0.01,-0.06,0.06
6.548998832702637,-0.01,-0.01,-0.05,0.05
6.559302806854248,0.01,-0.01,-0.05,0.05
6.5687479972839355,0.02,0.0,-0.05,0.05
6.579090118408203,0.03,0.01,-0.05,0.05
6.5904541015625,0.04,0.0,-0.05,0.06
6.598837852478027,0.05,0.01,-0.06,0.07
6.631075859069824,0.04,0.0,-0.06,0.07
6.631298065185547,0.05,0.0,-0.05,0.07
6.631507873535156,0.04,0.0,-0.06,0.07
6.63846492767334,0.03,0.0,-0.05,0.05
6.648432970046997,0.01,0.0,-0.06,0.06
6.658605098724365,0.01,0.0,-0.07,0.07
6.668148040771484,-0.01,0.0,-0.06,0.06
6.678267955780029,-0.03,-0.01,-0.06,0.06
6.689666986465454,-0.04,-0.02,-0.06,0.07
6.698074817657471,-0.05,-0.02,-0.06,0.08
6.731215953826904,-0.05,-0.03,-0.06,0.08
6.731443881988525,-0.05,-0.02,-0.05,0.07
6.73166298866272,-0.04,-0.01,-0.05,0.06
6.737900972366333,-0.02,-0.01,-0.04,0.04
6.747758865356445,-0.01,-0.01,-0.06,0.06
6.757791042327881,0.0,0.0,-0.05,0.05
6.767726898193359,0.0,0.0,-0.05,0.05
6.777604103088379,0.02,0.0,-0.05,0.05
6.788769960403442,0.03,0.01,-0.05,0.05
6.797444820404053,0.03,0.01,-0.05,0.05
6.831089973449707,0.04,0.0,-0.05,0.06
6.831281900405884,0.05,0.0,-0.05,0.07
6.831490993499756,0.04,0.0,-0.07,0.08
6.837443828582764,0.04,0.01,-0.06,0.07
6.847441911697388,0.03,0.0,-0.06,0.06
6.857353925704956,0.02,0.0,-0.07,0.07
6.867329120635986,0.0,0.0,-0.06,0.06
6.877029895782471,-0.03,-0.01,-0.06,0.06
6.888189792633057,-0.04,-0.01,-0.07,0.08
6.896905899047852,-0.05,-0.01,-0.05,0.07
6.932008981704712,-0.05,-0.02,-0.06,0.08
6.932220935821533,-0.04,-0.01,-0.06,0.07
6.932397842407227,-0.04,-0.02,-0.06,0.07
6.936604022979736,-0.04,-0.02,-0.05,0.06
6.946602821350098,-0.02,-0.03,-0.05,0.06
6.956575870513916,-0.01,-0.02,-0.05,0.05
6.966490983963013,0.01,-0.01,-0.05,0.05
6.976563930511475,0.02,0.0,-0.06,0.06
6.9875898361206055,0.03,0.0,-0.05,0.05
6.996710777282715,0.04,0.01,-0.06,0.07
7.032218933105469,0.05,0.01,-0.05,0.07
7.032384872436523,0.05,0.01,-0.05,0.07
7.032586097717285,0.04,0.01,-0.06,0.07
7.03597092628479,0.04,0.0,-0.06,0.07
7.046029090881348,0.03,0.0,-0.05,0.05
7.056265830993652,0.01,0.0,-0.06,0.06
7.065845966339111,0.0,0.0,-0.06,0.06
7.075850963592529,-0.01,0.0,-0.05,0.05
7.087060928344727,-0.02,-0.01,-0.06,0.06
7.09612512588501,-0.03,-0.01,-0.07,0.07
7.132347106933594,-0.05,-0.02,-0.07,0.08
7.132534980773926,-0.05,-0.02,-0.05,0.07
7.1327128410339355,-0.05,-0.02,-0.06,0.08
7.1355109214782715,-0.04,-0.01,-0.04,0.05
7.145413875579834,-0.04,-0.01,-0.05,0.06
7.155186891555786,-0.02,-0.02,-0.06,0.06
7.165288925170898,-0.01,-0.01,-0.06,0.06
7.1752119064331055,0.01,-0.01,-0.04,0.04
7.186693906784058,0.03,-0.01,-0.04,0.05
7.195209980010986,0.03,0.0,-0.05,0.05
7.233021974563599,0.03,0.01,-0.05,0.05
7.2332048416137695,0.05,0.01,-0.05,0.07
7.23338508605957,0.05,0.01,-0.07,0.08
7.234646797180176,0.05,0.01,-0.06,0.07
7.244754791259766,0.04,0.01,-0.06,0.07
7.254501819610596,0.02,0.0,-0.05,0.05
7.264693975448608,0.0,0.0,-0.06,0.06
7.274564981460571,-0.01,0.0,-0.06,0.06
7.314803123474121,-0.02,-0.01,-0.06,0.06
7.315000057220459,-0.03,-0.02,-0.06,0.06
7.3151938915252686,-0.04,-0.02,-0.05,0.06
7.315361022949219,-0.04,-0.01,-0.05,0.06
7.324498891830444,-0.04,-0.02,-0.06,0.07
7.334270000457764,-0.05,-0.01,-0.07,0.08
7.344527959823608,-0.04,-0.01,-0.06,0.07
7.3539879322052,-0.04,-0.02,-0.06,0.07
7.364346027374268,-0.02,-0.01,-0.05,0.05
7.374136924743652,0.0,0.0,-0.04,0.04
7.41621208190918,0.01,-0.01,-0.04,0.04
7.41644287109375,0.03,0.01,-0.05,0.05
7.416619777679443,0.04,0.01,-0.05,0.06
7.416791915893555,0.06,0.01,-0.05,0.07
7.423736095428467,0.05,0.0,-0.06,0.07
7.43361496925354,0.04,0.01,-0.06,0.07
7.443658828735352,0.05,0.01,-0.06,0.07
7.4534687995910645,0.02,0.0,-0.05,0.05
7.463666915893555,0.02,0.0,-0.05,0.05
7.473407983779907,0.0,-0.01,-0.04,0.04
7.4849958419799805,-0.01,-0.02,-0.05,0.05
7.5163798332214355,-0.02,-0.02,-0.06,0.06
7.516605854034424,-0.04,-0.01,-0.07,0.08
7.516797065734863,-0.05,-0.02,-0.07,0.08
7.523094892501831,-0.06,-0.03,-0.06,0.09
7.533041000366211,-0.06,-0.03,-0.05,0.08
7.5429840087890625,-0.05,-0.02,-0.05,0.07
7.553196907043457,-0.04,-0.01,-0.05,0.06
7.563297986984253,-0.02,0.0,-0.04,0.04
7.572702884674072,0.0,-0.01,-0.05,0.05
7.584437847137451,0.02,0.0,-0.05,0.05
7.6167168617248535,0.02,0.0,-0.04,0.04
7.616929054260254,0.04,0.0,-0.06,0.07
7.617149829864502,0.05,0.01,-0.07,0.08
7.622676849365234,0.07,0.0,-0.06,0.09
7.63243293762207,0.05,0.0,-0.06,0.07
7.642391920089722,0.05,0.0,-0.05,0.07
7.652309894561768,0.04,0.0,-0.05,0.06
7.66227388381958,0.04,0.01,-0.05,0.06
7.672072887420654,0.02,0.0,-0.05,0.05
7.683917999267578,0.0,-0.01,-0.06,0.06
7.717482089996338,-0.03,-0.01,-0.07,0.07
7.717714786529541,-0.04,-0.02,-0.05,0.06
7.717933893203735,-0.05,-0.01,-0.06,0.07
7.721805095672607,-0.06,-0.02,-0.06,0.08
7.731820106506348,-0.06,-0.03,-0.05,0.08
7.74178409576416,-0.05,-0.01,-0.06,0.07
7.751687049865723,-0.05,-0.01,-0.05,0.07
7.761754989624023,-0.03,-0.02,-0.05,0.06
7.7716498374938965,-0.02,-0.01,-0.05,0.05
7.783022880554199,-0.01,-0.01,-0.05,0.05
7.817480087280273,0.01,-0.01,-0.04,0.04
7.81768798828125,0.03,-0.01,-0.06,0.06
7.817903995513916,0.04,0.0,-0.05,0.06
7.8212690353393555,0.05,0.01,-0.05,0.07
7.831219911575317,0.06,0.01,-0.05,0.07
7.841160774230957,0.05,0.01,-0.06,0.07
7.851157903671265,0.04,0.01,-0.05,0.06
7.861074924468994,0.05,0.01,-0.05,0.07
7.87088680267334,0.02,-0.01,-0.05,0.05
7.882388114929199,0.01,-0.01,-0.06,0.06
7.918632984161377,-0.01,-0.01,-0.06,0.06
7.918871879577637,-0.02,-0.02,-0.08,0.08
7.919063091278076,-0.05,-0.02,-0.07,0.08
7.920828819274902,-0.04,-0.02,-0.07,0.08
7.930728912353516,-0.05,-0.01,-0.05,0.07
7.940433025360107,-0.05,-0.02,-0.06,0.08
7.950483798980713,-0.05,-0.02,-0.06,0.08
7.96052885055542,-0.04,-0.02,-0.05,0.06
7.970909118652344,-0.03,-0.02,-0.05,0.06
7.981674909591675,-0.01,-0.02,-0.05,0.05
8.018548965454102,0.01,-0.01,-0.05,0.05
8.018759965896606,0.02,-0.01,-0.06,0.06
8.018980979919434,0.03,0.0,-0.05,0.05
8.019936084747314,0.05,0.01,-0.06,0.07
8.030244827270508,0.05,0.01,-0.06,0.07
8.039935111999512,0.05,0.01,-0.05,0.07
8.050149917602539,0.05,0.0,-0.06,0.07
8.059857845306396,0.04,0.0,-0.04,0.05
8.069835901260376,0.03,0.0,-0.05,0.05
8.081293106079102,0.02,0.0,-0.06,0.06
8.119245052337646,0.01,0.01,-0.06,0.06
8.119646072387695,0.0,0.0,-0.07,0.07
8.11986780166626,-0.03,-0.02,-0.06,0.06
8.12004280090332,-0.04,-0.02,-0.06,0.07
8.129552841186523,-0.05,-0.03,-0.06,0.08
8.139289855957031,-0.06,-0.02,-0.07,0.09
8.149390935897827,-0.05,-0.03,-0.06,0.08
8.159240007400513,-0.05,-0.03,-0.05,0.07
8.169252872467041,-0.03,-0.02,-0.05,0.06
8.180676937103271,-0.02,-0.02,-0.04,0.04
8.219384908676147,-0.01,-0.01,-0.04,0.04
8.219712972640991,0.01,0.01,-0.04,0.04
8.219933986663818,0.03,0.0,-0.05,0.05
8.220079898834229,0.03,0.0,-0.05,0.05
8.228853940963745,0.04,0.0,-0.06,0.07
8.238639831542969,0.05,0.01,-0.05,0.07
8.248623847961426,0.05,0.01,-0.05,0.07
8.258445978164673,0.05,0.01,-0.06,0.07
8.268581867218018,0.05,0.01,-0.06,0.07
8.279966831207275,0.04,0.0,-0.06,0.07
8.3211350440979,0.02,0.0,-0.05,0.05
8.321642875671387,0.01,-0.01,-0.06,0.06
8.321870803833008,-0.02,-0.02,-0.07,0.07
8.322062015533447,-0.04,-0.02,-0.06,0.07
8.328310012817383,-0.05,-0.02,-0.05,0.07
8.33863091468811,-0.05,-0.03,-0.06,0.08
8.34810996055603,-0.06,-0.03,-0.05,0.08
8.35790205001831,-0.04,-0.02,-0.05,0.06
8.368200778961182,-0.05,-0.02,-0.05,0.07
8.379292964935303,-0.04,-0.02,-0.07,0.08
8.388041973114014,-0.02,-0.01,-0.06,0.06
8.420650959014893,0.0,-0.01,-0.05,0.05
8.420825004577637,0.0,0.0,-0.05,0.05
8.421014785766602,0.02,-0.01,-0.05,0.05
8.427841901779175,0.04,0.0,-0.06,0.07
8.43767786026001,0.04,0.01,-0.05,0.06
8.447474956512451,0.05,0.0,-0.05,0.07
8.457310914993286,0.05,0.0,-0.04,0.06
8.467511892318726,0.04,0.0,-0.04,0.05
8.478549003601074,0.04,0.0,-0.06,0.07
8.487282991409302,0.03,0.0,-0.05,0.05
8.52173900604248,0.01,-0.01,-0.05,0.05
8.52233099937439,0.0,-0.01,-0.06,0.06
8.52250599861145,-0.02,-0.01,-0.06,0.06
8.527228832244873,-0.04,0.0,-0.06,0.07
8.536975860595703,-0.05,-0.02,-0.06,0.08
8.546953916549683,-0.04,-0.02,-0.06,0.07
8.556736946105957,-0.05,-0.02,-0.06,0.08
8.56680679321289,-0.05,-0.02,-0.05,0.07
8.578145980834961,-0.04,-0.02,-0.05,0.06
8.586932897567749,-0.03,-0.02,-0.06,0.06
8.622021913528442,-0.02,-0.01,-0.05,0.05
8.622676849365234,0.0,-0.02,-0.05,0.05
8.622905969619751,0.02,-0.01,-0.06,0.06
8.626414775848389,0.02,0.0,-0.07,0.07
8.63639497756958,0.03,0.0,-0.06,0.06
8.646384954452515,0.04,0.0,-0.05,0.06
8.656114101409912,0.04,0.01,-0.06,0.07
8.666204929351807,0.04,0.0,-0.06,0.07
8.67740797996521,0.05,0.0,-0.07,0.08
8.686105966567993,0.04,-0.01,-0.06,0.07
8.722498893737793,0.02,-0.01,-0.06,0.06
8.722707986831665,0.0,-0.01,-0.05,0.05
8.722909927368164,-0.01,-0.01,-0.06,0.06
8.725780010223389,-0.02,-0.01,-0.05,0.05
8.735764980316162,-0.03,-0.02,-0.06,0.06
8.745629787445068,-0.05,-0.02,-0.06,0.08
8.75610089302063,-0.05,-0.02,-0.06,0.08
8.76559591293335,-0.05,-0.01,-0.06,0.07
8.776676893234253,-0.04,-0.01,-0.06,0.07
8.78539490699768,-0.03,-0.01,-0.05,0.05
8.823301792144775,-0.01,-0.01,-0.05,0.05
8.823518991470337,-0.01,0.0,-0.04,0.04
8.823745965957642,0.01,-0.01,-0.05,0.05
8.825336933135986,0.02,0.0,-0.06,0.06
8.835103988647461,0.03,0.01,-0.06,0.06
8.845053911209106,0.04,0.0,-0.05,0.06
8.855159997940063,0.04,0.01,-0.05,0.06
8.864884853363037,0.05,0.01,-0.05,0.07
8.87614393234253,0.04,0.0,-0.06,0.07
8.884883880615234,0.03,0.0,-0.05,0.05
8.923924922943115,0.02,0.0,-0.05,0.05
8.924171924591064,0.01,-0.01,-0.06,0.06
8.924402952194214,-0.01,-0.02,-0.07,0.07
8.924736976623535,-0.01,-0.02,-0.05,0.05
8.934593915939331,-0.03,-0.03,-0.05,0.06
8.944679975509644,-0.05,-0.02,-0.05,0.07
8.954489946365356,-0.04,-0.02,-0.06,0.07
8.964504957199097,-0.04,-0.02,-0.05,0.06
8.975470066070557,-0.04,-0.02,-0.05,0.06
8.984241962432861,-0.04,-0.02,-0.05,0.06
9.023914813995361,-0.03,-0.02,-0.05,0.06
9.024274826049805,-0.02,-0.02,-0.05,0.05
9.024444103240967,0.0,-0.02,-0.05,0.05
9.024632930755615,0.02,0.0,-0.05,0.05
9.033915996551514,0.03,0.0,-0.05,0.05
9.043735027313232,0.04,0.0,-0.05,0.06
9.053883075714111,0.04,0.01,-0.06,0.07
9.063957929611206,0.05,0.0,-0.05,0.07
9.075109958648682,0.04,0.0,-0.06,0.07
9.08376407623291,0.04,0.0,-0.05,0.06
9.12497591972351,0.03,-0.01,-0.06,0.06
9.125185012817383,0.01,-0.01,-0.05,0.05
9.125387907028198,0.0,-0.01,-0.06,0.06
9.125557899475098,0.0,-0.02,-0.06,0.06
9.133359909057617,-0.02,-0.02,-0.05,0.05
9.143112897872925,-0.04,-0.02,-0.05,0.06
9.15326189994812,-0.05,-0.02,-0.06,0.08
9.163094997406006,-0.05,-0.02,-0.06,0.08
9.20777702331543,-0.05,-0.01,-0.07,0.08
9.20802092552185,-0.04,-0.02,-0.06,0.07
9.208200931549072,-0.04,-0.02,-0.04,0.06
9.208388805389404,-0.03,-0.02,-0.05,0.06
9.212857961654663,0.0,-0.01,-0.05,0.05
9.222770929336548,0.02,-0.01,-0.05,0.05
9.232731819152832,0.02,-0.01,-0.06,0.06
9.242566108703613,0.04,-0.01,-0.06,0.07
9.25258207321167,0.05,-0.01,-0.05,0.07
9.262887954711914,0.05,-0.01,-0.06,0.07
9.27383804321289,0.05,0.0,-0.05,0.07
9.309370040893555,0.05,0.0,-0.05,0.07
9.30955696105957,0.04,0.0,-0.05,0.06
9.309735774993896,0.02,0.0,-0.05,0.05
9.31210708618164,0.0,0.0,-0.06,0.06
9.322175979614258,-0.01,0.0,-0.05,0.05
9.332262992858887,-0.03,-0.01,-0.06,0.06
9.342006921768188,-0.05,-0.02,-0.06,0.08
9.351998805999756,-0.05,-0.02,-0.05,0.07
9.361999988555908,-0.05,-0.02,-0.06,0.08
9.373317956924438,-0.06,-0.02,-0.07,0.09
9.409369945526123,-0.04,-0.02,-0.05,0.06
9.409575939178467,-0.03,-0.02,-0.04,0.05
9.409755945205688,-0.02,-0.02,-0.04,0.04
9.411808013916016,-0.01,-0.02,-0.06,0.06
9.421762943267822,-0.01,-0.01,-0.06,0.06
9.431571006774902,0.01,-0.02,-0.06,0.06
9.441659927368164,0.03,-0.01,-0.05,0.05
9.451788902282715,0.04,0.0,-0.06,0.07
9.461267948150635,0.05,0.01,-0.06,0.07
9.472716808319092,0.06,0.0,-0.05,0.07
9.510235786437988,0.06,0.01,-0.05,0.07
9.510426044464111,0.04,0.01,-0.05,0.06
9.510648965835571,0.03,0.0,-0.05,0.05
9.510931015014648,0.01,0.0,-0.06,0.06
9.520992994308472,-0.01,0.0,-0.05,0.05
9.530994892120361,-0.02,-0.01,-0.07,0.07
9.54102897644043,-0.03,-0.01,-0.07,0.07
9.55083179473877,-0.04,-0.01,-0.06,0.07
9.5606529712677,-0.05,-0.01,-0.05,0.07
9.572147846221924,-0.05,-0.01,-0.04,0.06
9.611036777496338,-0.04,-0.01,-0.05,0.06
9.611247062683105,-0.04,-0.02,-0.06,0.07
9.611446857452393,-0.03,-0.02,-0.05,0.06
9.611621856689453,-0.01,-0.02,-0.05,0.05
9.62061882019043,0.0,-0.01,-0.05,0.05
9.630281925201416,0.03,-0.01,-0.05,0.05
9.640228986740112,0.03,-0.01,-0.05,0.05
9.650361061096191,0.05,0.0,-0.06,0.07
9.660001993179321,0.05,0.0,-0.06,0.07
9.671458959579468,0.05,0.0,-0.06,0.07
9.711416006088257,0.04,0.01,-0.06,0.07
9.711620807647705,0.03,0.0,-0.06,0.06
9.711827993392944,0.03,0.01,-0.05,0.05
9.711996078491211,0.02,0.01,-0.05,0.05
9.719727993011475,0.0,0.0,-0.05,0.05
9.72992491722107,-0.01,0.0,-0.06,0.06
9.73968505859375,-0.02,0.0,-0.06,0.06
9.749727964401245,-0.04,-0.02,-0.05,0.06
9.759759902954102,-0.04,-0.01,-0.06,0.07
9.770985126495361,-0.04,-0.02,-0.07,0.08
9.81168794631958,-0.04,-0.03,-0.05,0.07
9.811840057373047,-0.04,-0.03,-0.05,0.07
9.812062978744507,-0.03,-0.02,-0.06,0.06
9.81226110458374,-0.02,-0.02,-0.05,0.05
9.8191659450531,0.0,-0.01,-0.05,0.05
9.829131126403809,0.01,-0.01,-0.05,0.05
9.839333057403564,0.02,0.0,-0.06,0.06
9.849039077758789,0.02,0.0,-0.05,0.05
9.859385967254639,0.03,0.01,-0.06,0.06
9.870453834533691,0.04,0.0,-0.05,0.06
9.912521839141846,0.04,0.01,-0.06,0.07
9.912705898284912,0.03,0.01,-0.06,0.06
9.91288709640503,0.03,0.01,-0.05,0.05
9.913065910339355,0.03,0.01,-0.06,0.06
9.918529987335205,0.01,0.0,-0.06,0.06
9.928730964660645,0.0,-0.02,-0.05,0.05
9.938539981842041,-0.02,-0.02,-0.06,0.06
9.94837999343872,-0.02,-0.02,-0.06,0.06
9.9584219455719,-0.04,-0.03,-0.06,0.07
9.969868898391724,-0.05,-0.02,-0.06,0.08
10.013418912887573,-0.05,-0.02,-0.05,0.07
10.0136399269104,-0.04,-0.03,-0.06,0.07
10.013842105865479,-0.04,-0.02,-0.04,0.06
10.01402997970581,-0.02,-0.02,-0.06,0.06
10.01816987991333,-0.01,-0.01,-0.05,0.05
10.02785587310791,0.0,0.0,-0.06,0.06
10.0381178855896,0.0,0.0,-0.05,0.05
10.047827005386353,0.02,0.01,-0.05,0.05
10.05781602859497,0.04,0.02,-0.05,0.06
10.06918478012085,0.04,0.01,-0.07,0.08
10.114003896713257,0.04,0.01,-0.05,0.06
10.114212989807129,0.03,0.0,-0.05,0.05
10.11439299583435,0.03,0.0,-0.06,0.06
10.114561080932617,0.03,-0.01,-0.06,0.06
10.117252826690674,0.03,-0.01,-0.05,0.05
10.12721586227417,0.01,-0.02,-0.06,0.06
10.137334823608398,-0.01,-0.01,-0.05,0.05
10.147134780883789,-0.02,-0.02,-0.06,0.06
10.157136917114258,-0.03,-0.02,-0.07,0.07
10.168498039245605,-0.05,-0.02,-0.07,0.08
10.214809894561768,-0.05,-0.01,-0.05,0.07
10.214987993240356,-0.05,-0.02,-0.05,0.07
10.215166091918945,-0.05,-0.02,-0.04,0.06
10.215384006500244,-0.03,-0.01,-0.05,0.05
10.216725826263428,-0.02,-0.01,-0.05,0.05
10.227107048034668,0.0,-0.01,-0.06,0.06
10.23677682876587,0.01,-0.01,-0.05,0.05
10.246423959732056,0.03,0.0,-0.05,0.05
10.256531000137329,0.03,0.0,-0.06,0.06
10.26800799369812,0.04,0.0,-0.06,0.07
10.276436805725098,0.03,0.0,-0.06,0.06
10.314929008483887,0.03,0.0,-0.04,0.05
10.315112113952637,0.03,0.0,-0.06,0.06
10.315310955047607,0.02,-0.01,-0.06,0.06
10.31599497795105,0.02,-0.01,-0.05,0.05
10.326169967651367,0.0,-0.01,-0.07,0.07
10.336355924606323,-0.01,-0.01,-0.05,0.05
10.345881938934326,-0.02,-0.01,-0.06,0.06
10.355995893478394,-0.04,-0.02,-0.06,0.07
10.367290019989014,-0.05,-0.02,-0.06,0.08
10.375857830047607,-0.06,-0.02,-0.06,0.08
10.415855884552002,-0.05,-0.02,-0.04,0.06
10.416162014007568,-0.04,-0.02,-0.04,0.06
10.416352987289429,-0.03,-0.02,-0.06,0.06
10.41654896736145,-0.02,-0.02,-0.04,0.04
10.42573595046997,-0.01,-0.01,-0.05,0.05
10.435487985610962,0.01,-0.01,-0.04,0.04
10.445292949676514,0.02,0.0,-0.05,0.05
10.455420017242432,0.04,0.0,-0.06,0.07
10.466795921325684,0.04,-0.01,-0.06,0.07
10.475213050842285,0.04,-0.01,-0.06,0.07
10.515810012817383,0.05,0.0,-0.06,0.07
10.51598310470581,0.04,0.0,-0.06,0.07
10.51619005203247,0.02,0.0,-0.05,0.05
10.516389846801758,0.02,-0.01,-0.06,0.06
10.524926900863647,0.01,-0.01,-0.05,0.05
10.534971952438354,0.0,-0.01,-0.05,0.05
10.544672012329102,-0.02,-0.02,-0.05,0.05
10.554812908172607,-0.03,-0.02,-0.06,0.06
10.565741062164307,-0.04,-0.02,-0.06,0.07
10.574649810791016,-0.04,-0.02,-0.05,0.06
10.616590023040771,-0.04,0.0,-0.06,0.07
10.616794109344482,-0.03,-0.01,-0.06,0.06
10.61699390411377,-0.02,-0.01,-0.05,0.05
10.617166996002197,-0.03,-0.01,-0.05,0.05
10.624311923980713,-0.02,-0.02,-0.04,0.04
10.63454008102417,0.0,0.0,-0.04,0.04
10.644704818725586,0.01,-0.01,-0.05,0.05
10.654249906539917,0.02,-0.01,-0.06,0.06
10.665219783782959,0.03,0.0,-0.05,0.05
10.674065113067627,0.04,0.0,-0.06,0.07
10.717036962509155,0.05,0.0,-0.06,0.07
10.717207908630371,0.04,0.0,-0.06,0.07
10.717413902282715,0.03,-0.01,-0.06,0.06
10.71758508682251,0.02,-0.01,-0.06,0.06
10.723631858825684,0.02,0.0,-0.05,0.05
10.733914852142334,0.0,0.0,-0.06,0.06
10.743649005889893,0.0,-0.01,-0.06,0.06
10.753913879394531,-0.03,-0.01,-0.05,0.05
10.764503955841064,-0.04,-0.01,-0.05,0.06
10.773548126220703,-0.05,-0.01,-0.06,0.07
10.817827939987183,-0.07,-0.02,-0.05,0.08
10.818009853363037,-0.05,-0.02,-0.05,0.07
10.818202018737793,-0.04,-0.02,-0.06,0.07
10.818376064300537,-0.03,-0.02,-0.06,0.06
10.82337498664856,-0.02,-0.01,-0.05,0.05
10.833250999450684,0.0,-0.01,-0.05,0.05
10.842957019805908,0.0,-0.01,-0.05,0.05
10.852991104125977,0.02,-0.01,-0.06,0.06
10.863862991333008,0.04,-0.01,-0.06,0.07
10.872902870178223,0.05,0.0,-0.06,0.07
10.918379783630371,0.04,-0.01,-0.05,0.06
10.918612957000732,0.05,0.0,-0.06,0.07
10.918832778930664,0.04,0.01,-0.05,0.06
10.919023036956787,0.03,0.01,-0.06,0.06
10.922410011291504,0.02,0.01,-0.06,0.06
10.932596921920776,0.01,0.0,-0.06,0.06
10.94239592552185,-0.02,0.0,-0.06,0.06
10.95249080657959,-0.03,-0.01,-0.06,0.06
10.963500022888184,-0.04,-0.02,-0.05,0.06
10.9723379611969,-0.04,-0.01,-0.06,0.07
11.0187349319458,-0.04,-0.02,-0.06,0.07
11.018908023834229,-0.04,-0.01,-0.06,0.07
11.019077777862549,-0.04,-0.02,-0.06,0.07
11.019278049468994,-0.03,-0.02,-0.05,0.06
11.02183485031128,-0.02,-0.02,-0.05,0.05
11.031863927841187,-0.01,-0.01,-0.05,0.05
11.041794776916504,0.0,-0.01,-0.05,0.05
11.05173397064209,0.02,-0.02,-0.05,0.05
11.101760864257812,0.03,-0.01,-0.06,0.06
11.101984977722168,0.05,0.0,-0.05,0.07
11.102163791656494,0.04,0.0,-0.05,0.06
11.102338790893555,0.04,0.0,-0.06,0.07
11.102511882781982,0.04,0.0,-0.05,0.06
11.111350059509277,0.04,0.0,-0.06,0.07
11.121434926986694,0.02,-0.01,-0.07,0.07
11.131181001663208,0.0,-0.01,-0.06,0.06
11.141172885894775,0.0,-0.01,-0.05,0.05
11.151111125946045,-0.02,-0.01,-0.05,0.05
11.203146934509277,-0.02,-0.01,-0.07,0.07
11.203351974487305,-0.03,-0.01,-0.06,0.06
11.203545093536377,-0.04,-0.01,-0.05,0.06
11.203742027282715,-0.05,-0.01,-0.06,0.07
11.203916072845459,-0.05,-0.02,-0.06,0.08
11.210664987564087,-0.04,-0.02,-0.06,0.07
11.221006870269775,-0.03,-0.03,-0.06,0.07
11.230556011199951,-0.02,-0.02,-0.04,0.04
11.240655899047852,0.0,-0.02,-0.05,0.05
11.25049877166748,0.01,-0.02,-0.05,0.05
11.262036800384521,0.02,-0.01,-0.06,0.06
11.30311894416809,0.04,0.0,-0.06,0.07
11.303319931030273,0.05,0.0,-0.05,0.07
11.303491115570068,0.05,0.0,-0.06,0.07
11.30368709564209,0.04,0.0,-0.05,0.06
11.310122013092041,0.04,0.01,-0.05,0.06
11.320183992385864,0.03,0.01,-0.05,0.05
11.3299241065979,0.03,0.0,-0.07,0.07
11.340102910995483,0.01,0.01,-0.06,0.06
11.349825859069824,0.0,0.0,-0.06,0.06
11.361155033111572,-0.02,-0.01,-0.06,0.06
11.403582096099854,-0.04,-0.01,-0.06,0.07
11.403810024261475,-0.05,-0.02,-0.05,0.07
11.404014110565186,-0.05,-0.03,-0.06,0.08
11.404190063476562,-0.04,-0.03,-0.06,0.07
11.409656047821045,-0.06,-0.03,-0.06,0.09
11.419604778289795,-0.04,-0.02,-0.05,0.06
11.42999792098999,-0.02,-0.02,-0.05,0.05
11.439455032348633,-0.01,-0.02,-0.05,0.05
11.449283123016357,0.01,-0.01,-0.06,0.06
11.460691928863525,0.03,0.0,-0.06,0.06
11.50394892692566,0.02,0.0,-0.06,0.06
11.50414490699768,0.03,0.01,-0.06,0.06
11.504331111907959,0.03,0.01,-0.05,0.05
11.504549026489258,0.05,0.0,-0.06,0.07
11.509119033813477,0.04,0.01,-0.06,0.07
11.519134998321533,0.04,0.0,-0.06,0.07
11.528924942016602,0.03,0.0,-0.06,0.06
11.538924932479858,0.02,0.0,-0.06,0.06
11.548605918884277,0.01,-0.01,-0.06,0.06
11.560187816619873,-0.01,-0.02,-0.06,0.06
11.60430908203125,-0.02,-0.03,-0.05,0.06
11.604520797729492,-0.03,-0.03,-0.06,0.07
11.604712963104248,-0.04,-0.03,-0.05,0.07
11.604859828948975,-0.04,-0.03,-0.05,0.07
11.60829782485962,-0.04,-0.02,-0.06,0.07
11.618384838104248,-0.04,-0.02,-0.06,0.07
11.628428936004639,-0.03,-0.02,-0.06,0.06
11.638329029083252,-0.02,-0.01,-0.05,0.05
11.648072957992554,-0.01,0.0,-0.06,0.06
11.659437894821167,0.0,0.0,-0.04,0.04
11.704885959625244,0.01,0.0,-0.05,0.05
11.705060958862305,0.02,0.0,-0.05,0.05
11.705259799957275,0.03,0.0,-0.06,0.06
11.705437898635864,0.03,0.0,-0.05,0.05
11.707668781280518,0.03,0.0,-0.05,0.05
11.717854976654053,0.04,-0.01,-0.05,0.06
11.727654933929443,0.05,-0.01,-0.05,0.07
11.73774003982544,0.03,-0.02,-0.07,0.07
11.747530937194824,0.02,-0.01,-0.06,0.06
11.759016036987305,0.01,-0.01,-0.06,0.06
11.805480003356934,-0.01,-0.01,-0.06,0.06
11.80565595626831,-0.03,-0.01,-0.06,0.06
11.805826902389526,-0.03,-0.02,-0.06,0.06
11.806006908416748,-0.05,-0.02,-0.06,0.08
11.806955814361572,-0.05,-0.02,-0.06,0.08
11.817291975021362,-0.05,-0.03,-0.05,0.07
11.827268123626709,-0.04,-0.02,-0.05,0.06
11.83702278137207,-0.03,-0.02,-0.04,0.05
11.846985816955566,-0.02,-0.01,-0.06,0.06
11.858520030975342,0.0,0.0,-0.05,0.05
11.905861854553223,0.01,0.0,-0.07,0.07
11.906109809875488,0.02,-0.01,-0.05,0.05
11.906338930130005,0.03,0.0,-0.06,0.06
11.906667947769165,0.04,0.0,-0.06,0.07
11.906832933425903,0.05,0.0,-0.06,0.07
11.91652798652649,0.04,-0.01,-0.06,0.07
11.926459789276123,0.04,-0.01,-0.04,0.05
11.936409950256348,0.03,0.0,-0.05,0.05
11.94645881652832,0.02,-0.01,-0.06,0.06
11.957718849182129,0.0,-0.01,-0.06,0.06
12.00623607635498,-0.01,-0.02,-0.06,0.06
12.006540775299072,-0.02,-0.02,-0.06,0.06
12.006735801696777,-0.04,-0.02,-0.05,0.06
12.006931781768799,-0.05,-0.03,-0.05,0.07
12.007122039794922,-0.05,-0.01,-0.06,0.07
12.015827894210815,-0.04,-0.02,-0.04,0.06
12.025867938995361,-0.04,-0.02,-0.05,0.06
12.035892009735107,-0.02,-0.01,-0.06,0.06
12.045988082885742,-0.01,0.0,-0.06,0.06
12.057111978530884,0.0,0.0,-0.05,0.05
12.107589960098267,0.0,-0.01,-0.06,0.06
12.107764959335327,0.02,-0.01,-0.06,0.06
12.10798978805542,0.03,0.0,-0.05,0.05
12.108187913894653,0.04,-0.01,-0.05,0.06
12.108386039733887,0.05,0.0,-0.05,0.07
12.115416049957275,0.05,0.0,-0.06,0.07
12.125283002853394,0.04,0.0,-0.06,0.07
12.135056972503662,0.03,-0.01,-0.06,0.06
12.145150899887085,0.02,-0.01,-0.05,0.05
12.156512975692749,0.0,-0.01,-0.06,0.06
12.207158088684082,-0.01,-0.01,-0.06,0.06
12.207392930984497,-0.02,-0.02,-0.05,0.05
12.207573890686035,-0.04,-0.02,-0.05,0.06
12.207770824432373,-0.04,-0.01,-0.06,0.07
12.20791482925415,-0.04,-0.01,-0.06,0.07
12.21470594406128,-0.04,-0.02,-0.05,0.06
12.224793910980225,-0.05,-0.02,-0.05,0.07
12.234524965286255,-0.03,-0.01,-0.04,0.05
12.244564056396484,-0.02,-0.02,-0.05,0.05
12.255904912948608,-0.01,-0.02,-0.06,0.06
12.264671802520752,0.0,-0.02,-0.06,0.06
12.30774211883545,0.02,-0.01,-0.05,0.05
12.307950973510742,0.03,-0.01,-0.06,0.06
12.308148860931396,0.04,0.0,-0.06,0.07
12.308314800262451,0.05,0.0,-0.06,0.07
12.314132928848267,0.05,0.0,-0.06,0.07
12.324135780334473,0.04,0.0,-0.06,0.07
12.333847045898438,0.04,0.0,-0.06,0.07
12.343976020812988,0.03,0.0,-0.06,0.06
12.355370998382568,0.02,0.0,-0.06,0.06
12.363861083984375,0.0,0.0,-0.05,0.05
12.40782880783081,-0.02,-0.01,-0.05,0.05
12.40801477432251,-0.04,-0.01,-0.05,0.06
12.408163070678711,-0.04,-0.01,-0.05,0.06
12.40836477279663,-0.04,-0.02,-0.06,0.07
12.413413047790527,-0.05,-0.02,-0.06,0.08
12.423462867736816,-0.05,-0.02,-0.06,0.08
12.433423042297363,-0.03,-0.03,-0.06,0.07
12.443365097045898,-0.03,-0.02,-0.06,0.06
12.454255104064941,-0.01,-0.02,-0.06,0.06
12.463558912277222,0.01,-0.01,-0.04,0.04
12.509181022644043,0.03,0.0,-0.05,0.05
12.509368896484375,0.03,0.0,-0.06,0.06
12.509565830230713,0.04,0.01,-0.06,0.07
12.50973892211914,0.03,0.01,-0.06,0.06
12.513031005859375,0.03,0.0,-0.05,0.05
12.522925853729248,0.04,0.0,-0.06,0.07
12.533240795135498,0.03,0.0,-0.06,0.06
12.542972087860107,0.03,0.0,-0.07,0.07
12.553761959075928,0.01,0.0,-0.06,0.06
12.562583923339844,0.01,-0.01,-0.05,0.05
12.609083890914917,-0.01,-0.01,-0.05,0.05
12.609277963638306,-0.01,-0.01,-0.06,0.06
12.609447956085205,-0.02,-0.01,-0.06,0.06
12.60964584350586,-0.03,-0.01,-0.05,0.05
12.612259864807129,-0.04,-0.01,-0.05,0.06
12.622535943984985,-0.04,-0.02,-0.04,0.06
12.632396936416626,-0.03,-0.02,-0.05,0.06
12.64245080947876,-0.03,-0.02,-0.06,0.06
12.653279781341553,-0.01,-0.01,-0.06,0.06
12.662187099456787,-0.01,-0.01,-0.06,0.06
12.709752082824707,0.0,-0.01,-0.06,0.06
12.709973812103271,0.02,-0.01,-0.05,0.05
12.710176944732666,0.02,0.0,-0.06,0.06
12.710370063781738,0.03,-0.01,-0.06,0.06
12.711630821228027,0.04,-0.01,-0.05,0.06
12.721827030181885,0.04,0.0,-0.05,0.06
12.731682777404785,0.04,0.0,-0.05,0.06
12.741617918014526,0.03,0.0,-0.06,0.06
12.752565860748291,0.01,0.0,-0.05,0.05
12.761501789093018,0.02,0.01,-0.06,0.06
12.810373783111572,0.01,0.0,-0.06,0.06
12.810571908950806,-0.02,-0.01,-0.06,0.06
12.810760021209717,-0.03,-0.01,-0.06,0.06
12.810905933380127,-0.03,-0.01,-0.06,0.06
12.811258792877197,-0.03,-0.02,-0.05,0.06
12.821022987365723,-0.03,-0.02,-0.06,0.06
12.830986976623535,-0.03,-0.02,-0.05,0.06
12.840924978256226,-0.03,-0.02,-0.04,0.05
12.851983070373535,-0.01,-0.03,-0.04,0.05
12.860816955566406,0.0,-0.02,-0.05,0.05
12.910574913024902,0.0,-0.01,-0.07,0.07
12.910883903503418,0.02,-0.01,-0.07,0.07
12.911086082458496,0.03,-0.01,-0.06,0.06
12.911265850067139,0.03,-0.01,-0.05,0.05
12.911453008651733,0.02,0.0,-0.05,0.05
12.920254945755005,0.03,0.01,-0.04,0.05
12.930547952651978,0.03,0.0,-0.05,0.05
12.94049596786499,0.03,0.0,-0.06,0.06
12.994632959365845,0.02,0.0,-0.05,0.05
12.994861125946045,0.01,0.01,-0.06,0.06
12.99507999420166,0.0,-0.01,-0.05,0.05
12.995297908782959,-0.02,-0.02,-0.06,0.06
12.995474815368652,-0.02,-0.02,-0.07,0.07
12.999903917312622,-0.02,-0.02,-0.07,0.07
13.009961128234863,-0.03,-0.03,-0.04,0.05
13.019897937774658,-0.03,-0.02,-0.06,0.06
13.029780864715576,-0.03,-0.02,-0.05,0.06
13.039922952651978,-0.02,-0.02,-0.05,0.05
13.096204996109009,-0.01,-0.01,-0.05,0.05
13.096357822418213,-0.01,-0.01,-0.05,0.05
13.096550941467285,0.0,0.0,-0.05,0.05
13.096696853637695,0.0,0.0,-0.05,0.05
13.09689712524414,0.01,0.0,-0.04,0.04
13.099320888519287,0.02,0.01,-0.07,0.07
13.109614849090576,0.03,0.0,-0.06,0.06
13.119049072265625,0.02,0.0,-0.06,0.06
13.12925910949707,0.02,0.0,-0.05,0.05
13.139314889907837,0.02,0.0,-0.05,0.05
13.150566101074219,0.02,-0.01,-0.06,0.06
13.195610046386719,0.01,-0.01,-0.06,0.06
13.195818901062012,-0.01,-0.02,-0.06,0.06
13.196023941040039,0.0,-0.02,-0.07,0.07
13.196244955062866,-0.01,-0.01,-0.06,0.06
13.198740005493164,-0.01,-0.01,-0.05,0.05
13.208815097808838,-0.02,-0.01,-0.05,0.05
13.218502044677734,-0.03,-0.01,-0.05,0.05
13.228652000427246,-0.03,0.0,-0.06,0.06
13.238406896591187,-0.03,-0.01,-0.06,0.06
13.2500479221344,-0.02,-0.01,-0.05,0.05
13.296329021453857,-0.02,-0.01,-0.06,0.06
13.296477794647217,-0.02,-0.01,-0.06,0.06
13.296647071838379,0.0,-0.01,-0.06,0.06
13.29681396484375,0.01,-0.01,-0.06,0.06
13.298027992248535,0.02,0.0,-0.06,0.06
13.308214902877808,0.02,0.0,-0.05,0.05
13.31858777999878,0.03,-0.01,-0.05,0.05
13.328112125396729,0.03,-0.01,-0.06,0.06
13.33786392211914,0.03,-0.01,-0.07,0.07
13.349327087402344,0.02,-0.01,-0.06,0.06
13.39706802368164,0.01,-0.01,-0.06,0.06
13.397293090820312,-0.01,0.0,-0.06,0.06
13.39761996269226,-0.01,-0.01,-0.06,0.06
13.397763967514038,-0.01,-0.01,-0.06,0.06
13.397929906845093,-0.03,-0.01,-0.06,0.06
13.407678127288818,-0.04,-0.02,-0.06,0.07
13.417594909667969,-0.04,-0.02,-0.05,0.06
13.427509784698486,-0.04,-0.02,-0.05,0.06
13.4373140335083,-0.02,-0.02,-0.05,0.05
13.448744773864746,-0.01,-0.01,-0.06,0.06
13.497983932495117,0.0,-0.01,-0.06,0.06
13.498174905776978,0.0,-0.01,-0.05,0.05
13.498355865478516,0.0,-0.01,-0.07,0.07
13.498578071594238,0.01,0.0,-0.05,0.05
13.498722076416016,0.01,0.0,-0.05,0.05
13.506977081298828,0.02,-0.01,-0.05,0.05
13.516924858093262,0.03,0.0,-0.06,0.06
13.526923894882202,0.03,0.0,-0.05,0.05
13.536655902862549,0.02,0.0,-0.05,0.05
13.548083782196045,0.01,0.0,-0.05,0.05
13.598219871520996,0.01,0.0,-0.06,0.06
13.598421096801758,0.0,-0.01,-0.06,0.06
13.598590850830078,-0.01,-0.01,-0.06,0.06
13.598779916763306,-0.02,-0.02,-0.06,0.06
13.598999977111816,-0.03,-0.01,-0.05,0.05
13.606422901153564,-0.03,-0.01,-0.05,0.05
13.616539001464844,-0.02,-0.02,-0.04,0.04
13.626269817352295,-0.02,-0.02,-0.06,0.06
13.636112928390503,-0.01,-0.02,-0.05,0.05
13.647629976272583,0.0,-0.01,-0.05,0.05
13.699306964874268,0.0,-0.01,-0.05,0.05
13.699503898620605,0.0,-0.01,-0.06,0.06
13.699728965759277,0.01,0.0,-0.05,0.05
13.699928998947144,0.01,0.01,-0.06,0.06
13.700124979019165,0.01,-0.01,-0.05,0.05
13.705595970153809,0.01,-0.01,-0.06,0.06
13.715717792510986,0.01,0.0,-0.05,0.05
13.725616931915283,0.01,0.0,-0.05,0.05
13.735673904418945,0.02,0.01,-0.06,0.06
13.746863842010498,0.02,-0.01,-0.07,0.07
13.799901008605957,0.02,-0.01,-0.05,0.05
13.800084114074707,0.01,-0.01,-0.05,0.05
13.80028486251831,0.0,-0.01,-0.06,0.06
13.800508975982666,-0.01,0.0,-0.05,0.05
13.80070686340332,-0.01,-0.01,-0.06,0.06
13.804988861083984,-0.02,-0.02,-0.05,0.05
13.815048933029175,-0.02,-0.01,-0.05,0.05
13.82497501373291,-0.03,-0.01,-0.05,0.05
13.834980964660645,-0.02,-0.02,-0.06,0.06
13.84606409072876,-0.02,-0.02,-0.06,0.06
13.900294780731201,-0.01,-0.01,-0.05,0.05
13.900469779968262,-0.01,-0.02,-0.05,0.05
13.900613784790039,-0.01,-0.02,-0.05,0.05
13.900805950164795,0.0,0.0,-0.05,0.05
13.900972843170166,0.01,0.0,-0.05,0.05
13.904351949691772,0.01,0.0,-0.05,0.05
13.914480924606323,0.02,0.0,-0.05,0.05
13.924606800079346,0.02,-0.01,-0.05,0.05
13.934414863586426,0.02,0.0,-0.08,0.08
13.945569038391113,0.02,-0.01,-0.06,0.06
13.999505043029785,0.02,-0.01,-0.04,0.04
13.999738931655884,0.0,-0.02,-0.05,0.05
13.9999098777771,0.0,-0.01,-0.05,0.05
14.000056982040405,0.0,-0.01,-0.05,0.05
14.000273942947388,-0.02,-0.02,-0.06,0.06
14.004037857055664,-0.02,-0.01,-0.05,0.05
14.013928890228271,-0.02,-0.01,-0.06,0.06
14.023644924163818,-0.01,-0.01,-0.06,0.06
14.033825874328613,-0.02,-0.02,-0.07,0.07
14.04491901397705,-0.01,-0.01,-0.05,0.05
14.100769996643066,-0.01,-0.01,-0.04,0.04
14.100977897644043,0.0,-0.01,-0.06,0.06
14.101125955581665,0.0,-0.01,-0.06,0.06
14.101325035095215,0.01,-0.01,-0.07,0.07
14.101500034332275,0.01,-0.01,-0.05,0.05
14.10315990447998,0.02,-0.01,-0.06,0.06
14.113563060760498,0.01,0.0,-0.04,0.04
14.123040914535522,0.01,-0.01,-0.05,0.05
14.133132934570312,0.01,-0.01,-0.05,0.05
14.144324779510498,0.0,-0.01,-0.07,0.07
14.15330982208252,-0.01,-0.01,-0.05,0.05
14.201052904129028,-0.01,0.0,-0.05,0.05
14.201287984848022,0.0,-0.01,-0.06,0.06
14.201461791992188,-0.02,-0.01,-0.06,0.06
14.201658964157104,-0.03,-0.01,-0.04,0.05
14.202622890472412,-0.02,-0.01,-0.06,0.06
14.212938785552979,-0.02,0.0,-0.06,0.06
14.222405910491943,-0.02,0.0,-0.05,0.05
14.232740879058838,-0.01,0.0,-0.05,0.05
14.243835926055908,0.0,-0.02,-0.06,0.06
14.25233793258667,0.0,-0.01,-0.06,0.06
14.301405906677246,0.0,-0.02,-0.05,0.05
14.301584005355835,0.02,-0.02,-0.05,0.05
14.301808834075928,0.02,-0.01,-0.06,0.06
14.30197811126709,0.01,-0.01,-0.06,0.06
14.302184104919434,0.02,-0.01,-0.06,0.06
14.312227964401245,0.02,-0.01,-0.06,0.06
14.322006940841675,0.02,-0.01,-0.05,0.05
14.331965923309326,0.02,0.0,-0.05,0.05
14.34315299987793,0.01,0.0,-0.04,0.04
14.351808071136475,0.0,0.0,-0.05,0.05
14.401779890060425,-0.01,-0.01,-0.05,0.05
14.402103900909424,-0.01,-0.01,-0.07,0.07
14.402293920516968,-0.02,-0.02,-0.07,0.07
14.402470111846924,-0.02,-0.02,-0.06,0.06
14.402645111083984,-0.02,-0.02,-0.05,0.05
14.411539077758789,-0.03,-0.02,-0.06,0.06
14.421695947647095,-0.02,-0.01,-0.05,0.05
14.431343078613281,-0.02,-0.01,-0.06,0.06
14.44230604171753,-0.01,-0.01,-0.05,0.05
14.451190948486328,-0.01,-0.01,-0.04,0.04
14.502336025238037,0.0,-0.01,-0.06,0.06
14.50252103805542,0.0,-0.01,-0.07,0.07
14.502718925476074,0.02,-0.01,-0.06,0.06
14.502907991409302,0.01,0.0,-0.06,0.06
14.50309705734253,0.02,-0.01,-0.06,0.06
14.510819911956787,0.02,-0.01,-0.06,0.06
14.5207839012146,0.02,0.0,-0.06,0.06
14.530823945999146,0.02,0.0,-0.05,0.05
14.541717052459717,0.01,0.0,-0.04,0.04
14.5506010055542,0.01,0.0,-0.06,0.06
14.603160858154297,0.0,-0.01,-0.07,0.07
14.603365898132324,-0.01,-0.01,-0.06,0.06
14.603541851043701,-0.01,-0.01,-0.07,0.07
14.603757858276367,-0.02,-0.02,-0.06,0.06
14.603931903839111,-0.02,-0.02,-0.05,0.05
14.610280990600586,-0.02,-0.02,-0.05,0.05
14.62017297744751,-0.02,-0.01,-0.04,0.04
14.6304030418396,-0.02,-0.01,-0.06,0.06
14.641182899475098,-0.01,-0.02,-0.05,0.05
14.649974822998047,-0.01,-0.01,-0.05,0.05
14.704185962677002,-0.02,-0.01,-0.05,0.05
14.70442008972168,-0.01,0.0,-0.06,0.06
14.704611778259277,0.0,-0.01,-0.06,0.06
14.704799890518188,0.01,0.0,-0.06,0.06
14.704943895339966,0.01,0.0,-0.06,0.06
14.709695816040039,0.01,-0.01,-0.05,0.05
14.719756126403809,0.02,-0.01,-0.05,0.05
14.729557991027832,0.02,0.0,-0.05,0.05
14.740538120269775,0.03,0.0,-0.06,0.06
14.749465942382812,0.01,0.0,-0.06,0.06
14.804574012756348,0.01,-0.01,-0.06,0.06
14.804764986038208,0.01,-0.01,-0.05,0.05
14.804959774017334,-0.01,0.0,-0.05,0.05
14.805150032043457,-0.02,-0.01,-0.05,0.05
14.805327892303467,-0.02,-0.01,-0.06,0.06
14.809181928634644,-0.01,-0.01,-0.06,0.06
14.819035053253174,-0.02,-0.02,-0.04,0.04
14.828946113586426,-0.02,-0.02,-0.05,0.05
14.889272928237915,-0.01,-0.01,-0.06,0.06
14.889453887939453,-0.01,-0.01,-0.05,0.05
14.889630794525146,-0.01,-0.01,-0.07,0.07
14.889830112457275,-0.01,-0.02,-0.06,0.06
14.89002799987793,-0.01,-0.01,-0.05,0.05
14.89023208618164,0.0,-0.01,-0.06,0.06
14.898605823516846,0.01,-0.01,-0.05,0.05
14.908314943313599,0.02,0.0,-0.03,0.03
14.91840410232544,0.02,-0.01,-0.06,0.06
14.92846393585205,0.01,-0.01,-0.06,0.06
14.990181922912598,0.01,-0.01,-0.05,0.05
14.99036693572998,0.01,-0.01,-0.06,0.06
14.990566968917847,0.0,-0.01,-0.07,0.07
14.99076509475708,-0.01,-0.01,-0.04,0.04
14.990983009338379,0.0,0.0,-0.06,0.06
14.991178035736084,-0.01,0.0,-0.05,0.05
14.997885942459106,-0.01,-0.01,-0.05,0.05
15.00770902633667,-0.02,-0.02,-0.05,0.05
15.017813920974731,-0.01,-0.01,-0.05,0.05
15.027760982513428,-0.01,-0.02,-0.04,0.04
15.039196968078613,-0.02,-0.02,-0.06,0.06
15.089711904525757,-0.01,-0.02,-0.05,0.05
15.089885950088501,-0.01,-0.01,-0.05,0.05
15.09008502960205,0.0,-0.01,-0.07,0.07
15.090229034423828,0.0,-0.01,-0.07,0.07
15.090396881103516,0.01,-0.01,-0.07,0.07
15.09728479385376,0.01,-0.01,-0.05,0.05
15.107027053833008,0.01,0.0,-0.05,0.05
15.117155075073242,0.01,0.0,-0.05,0.05
15.127049922943115,0.0,0.0,-0.06,0.06
15.138609886169434,0.01,-0.01,-0.05,0.05
15.191203117370605,0.01,-0.01,-0.06,0.06
15.19137692451477,-0.02,-0.01,-0.06,0.06
15.191582918167114,-0.01,-0.01,-0.05,0.05
15.191726922988892,-0.01,-0.01,-0.05,0.05
15.191925048828125,-0.01,0.0,-0.06,0.06
15.196806907653809,-0.02,-0.01,-0.06,0.06
15.20735502243042,-0.01,0.0,-0.05,0.05
15.216660976409912,-0.01,0.0,-0.06,0.06
15.226431846618652,-0.02,-0.01,-0.06,0.06
15.237804889678955,0.0,-0.01,-0.05,0.05
15.291664123535156,-0.01,-0.01,-0.05,0.05
15.291898965835571,0.0,-0.02,-0.06,0.06
15.29209280014038,0.01,-0.01,-0.06,0.06
15.292268991470337,0.01,-0.01,-0.07,0.07
15.292489051818848,0.0,-0.02,-0.06,0.06
15.296006917953491,0.02,-0.01,-0.06,0.06
15.306212902069092,0.0,0.0,-0.06,0.06
15.316074848175049,0.01,0.0,-0.06,0.06
15.325829029083252,0.01,0.0,-0.05,0.05
15.337232112884521,0.0,-0.01,-0.06,0.06
15.392465114593506,0.0,0.0,-0.05,0.05
15.392672061920166,-0.01,0.0,-0.06,0.06
15.392874956130981,-0.01,-0.01,-0.05,0.05
15.39309310913086,-0.02,-0.02,-0.06,0.06
15.393290042877197,-0.01,-0.02,-0.05,0.05
15.395366907119751,-0.02,-0.02,-0.05,0.05
15.40568995475769,-0.02,-0.02,-0.04,0.04
15.415466785430908,-0.01,-0.01,-0.07,0.07
15.425239086151123,-0.01,-0.01,-0.06,0.06
15.436568975448608,0.0,-0.02,-0.06,0.06
15.492798805236816,0.0,-0.01,-0.05,0.05
15.492950916290283,0.0,-0.01,-0.05,0.05
15.493093967437744,0.0,-0.01,-0.05,0.05
15.493313789367676,0.01,0.0,-0.06,0.06
15.493535041809082,0.02,0.01,-0.05,0.05
15.494708061218262,0.02,0.0,-0.05,0.05
15.504839897155762,0.02,0.0,-0.06,0.06
15.514822006225586,0.01,0.0,-0.05,0.05
15.524712085723877,0.01,0.0,-0.06,0.06
15.535919904708862,0.0,-0.01,-0.06,0.06
15.593562126159668,-0.01,0.0,-0.07,0.07
15.593768119812012,-0.01,-0.02,-0.06,0.06
15.593928813934326,-0.01,-0.02,-0.06,0.06
15.594099998474121,-0.03,-0.02,-0.06,0.06
15.594413995742798,-0.03,-0.02,-0.06,0.06
15.594612121582031,-0.02,-0.02,-0.05,0.05
15.604278087615967,-0.03,-0.01,-0.05,0.05
15.614195823669434,-0.03,-0.01,-0.05,0.05
15.624115943908691,-0.03,-0.01,-0.06,0.06
15.635347843170166,-0.02,-0.01,-0.06,0.06
15.693747997283936,-0.01,0.0,-0.05,0.05
15.694094896316528,-0.01,-0.01,-0.06,0.06
15.694267988204956,0.0,-0.01,-0.06,0.06
15.694435119628906,0.01,-0.01,-0.06,0.06
15.694629907608032,0.02,-0.01,-0.05,0.05
15.694796085357666,0.02,0.0,-0.05,0.05
15.703597068786621,0.03,0.0,-0.05,0.05
15.71352481842041,0.03,0.0,-0.05,0.05
15.723588943481445,0.02,-0.01,-0.06,0.06
15.734798908233643,0.01,0.0,-0.06,0.06
15.794909954071045,0.01,-0.01,-0.06,0.06
15.79512095451355,-0.01,-0.01,-0.07,0.07
15.795323848724365,0.0,-0.01,-0.05,0.05
15.795520782470703,-0.01,-0.01,-0.06,0.06
15.79573678970337,-0.02,0.0,-0.05,0.05
15.795931816101074,-0.02,-0.01,-0.07,0.07
15.802953004837036,-0.02,-0.01,-0.06,0.06
15.812946796417236,-0.03,-0.01,-0.06,0.06
15.822895050048828,-0.03,-0.02,-0.06,0.06
15.834096908569336,-0.03,-0.02,-0.05,0.06
15.895458936691284,-0.02,-0.02,-0.05,0.05
15.895632982254028,-0.01,-0.02,-0.05,0.05
15.895837783813477,0.0,-0.02,-0.06,0.06
15.896056890487671,0.01,-0.01,-0.05,0.05
15.896245956420898,0.02,-0.02,-0.05,0.05
15.896452903747559,0.03,-0.01,-0.04,0.05
15.902456998825073,0.02,-0.01,-0.05,0.05
15.91233491897583,0.03,0.0,-0.05,0.05
15.922347068786621,0.03,0.01,-0.06,0.06
15.933564901351929,0.02,0.0,-0.06,0.06
15.996540069580078,0.01,-0.01,-0.06,0.06
15.996737003326416,-0.01,0.0,-0.06,0.06
15.996945858001709,-0.02,0.0,-0.05,0.05
15.997168064117432,-0.01,-0.01,-0.06,0.06
15.997364044189453,-0.02,-0.01,-0.07,0.07
15.997529029846191,-0.01,-0.01,-0.07,0.07
16.001802921295166,-0.03,-0.01,-0.07,0.07
16.011778831481934,-0.04,-0.02,-0.07,0.08
16.02178382873535,-0.03,-0.03,-0.04,0.05
16.03297185897827,-0.03,-0.02,-0.05,0.06
16.04159688949585,-0.02,-0.02,-0.06,0.06
16.096651077270508,0.0,-0.01,-0.04,0.04
16.09683609008789,0.0,-0.01,-0.05,0.05
16.097012996673584,0.0,-0.01,-0.06,0.06
16.097229957580566,0.01,0.0,-0.05,0.05
16.097397804260254,0.02,0.0,-0.05,0.05
16.10120677947998,0.02,0.0,-0.07,0.07
16.11118197441101,0.02,-0.02,-0.06,0.06
16.121057987213135,0.02,-0.01,-0.06,0.06
16.132341861724854,0.01,0.0,-0.05,0.05
16.140968799591064,0.01,0.0,-0.07,0.07
16.196663856506348,0.01,-0.01,-0.07,0.07
16.196849822998047,0.01,-0.01,-0.06,0.06
16.19701910018921,0.0,-0.01,-0.06,0.06
16.197207927703857,-0.01,-0.02,-0.06,0.06
16.197373867034912,-0.02,-0.02,-0.06,0.06
16.20048999786377,-0.02,-0.02,-0.06,0.06
16.210421085357666,-0.02,-0.02,-0.06,0.06
16.220563888549805,-0.03,-0.01,-0.05,0.05
16.23150897026062,-0.02,-0.02,-0.05,0.05
16.240572929382324,-0.02,-0.01,-0.06,0.06
16.296710968017578,-0.01,-0.01,-0.05,0.05
16.29691791534424,-0.02,-0.01,-0.07,0.07
16.297117948532104,-0.01,-0.01,-0.05,0.05
16.297313928604126,0.0,-0.01,-0.06,0.06
16.297511100769043,0.01,-0.01,-0.04,0.04
16.299986839294434,0.02,0.0,-0.05,0.05
16.310204029083252,0.02,-0.01,-0.05,0.05
16.3199679851532,0.02,0.0,-0.05,0.05
16.33101511001587,0.03,0.01,-0.05,0.05
16.339809894561768,0.02,-0.01,-0.05,0.05
16.396248817443848,0.01,-0.01,-0.06,0.06
16.396456956863403,0.0,-0.01,-0.07,0.07
16.39664077758789,0.0,-0.01,-0.05,0.05
16.396814823150635,0.0,-0.01,-0.06,0.06
16.397010803222656,-0.01,-0.01,-0.07,0.07
16.39939785003662,-0.02,-0.02,-0.06,0.06
16.40934181213379,-0.02,-0.01,-0.06,0.06
16.419660091400146,-0.03,-0.01,-0.07,0.07
16.43028497695923,-0.03,-0.01,-0.05,0.05
16.439507007598877,-0.02,-0.01,-0.07,0.07
16.496562004089355,-0.02,-0.01,-0.07,0.07
16.49680185317993,-0.01,0.0,-0.06,0.06
16.497004985809326,-0.02,0.0,-0.05,0.05
16.497200965881348,-0.01,0.0,-0.06,0.06
16.49739980697632,0.01,0.0,-0.04,0.04
16.498661994934082,0.01,-0.01,-0.06,0.06
16.508731842041016,0.02,-0.01,-0.06,0.06
16.518921852111816,0.02,-0.01,-0.06,0.06
16.52969980239868,0.02,-0.01,-0.06,0.06
16.538618087768555,0.02,-0.02,-0.06,0.06
16.595946788787842,0.02,-0.02,-0.06,0.06
16.59613299369812,0.02,-0.01,-0.06,0.06
16.596346855163574,0.01,-0.01,-0.07,0.07
16.596545934677124,0.0,-0.01,-0.06,0.06
16.596713066101074,-0.02,-0.01,-0.06,0.06
16.59805393218994,-0.03,-0.02,-0.06,0.06
16.608202934265137,-0.03,-0.01,-0.07,0.07
16.618342876434326,-0.04,-0.01,-0.06,0.07
16.62905192375183,-0.02,-0.01,-0.05,0.05
16.638051986694336,-0.02,-0.01,-0.07,0.07
16.697216987609863,-0.01,-0.01,-0.06,0.06
16.697428941726685,-0.01,0.0,-0.05,0.05
16.697793006896973,-0.01,0.0,-0.07,0.07
16.697988033294678,0.0,0.0,-0.06,0.06
16.69820499420166,0.01,-0.01,-0.05,0.05
16.698419094085693,0.02,-0.02,-0.06,0.06
16.707626819610596,0.01,-0.01,-0.05,0.05
16.71753191947937,0.02,-0.02,-0.05,0.05
16.72903299331665,0.03,-0.02,-0.06,0.06
16.737435817718506,0.03,-0.01,-0.06,0.06
16.797536849975586,0.02,0.0,-0.06,0.06
16.797866821289062,0.01,-0.01,-0.06,0.06
16.798036098480225,0.0,-0.01,-0.06,0.06
16.79823589324951,-0.01,-0.01,-0.05,0.05
16.798402786254883,-0.03,-0.01,-0.05,0.05
16.79854393005371,-0.03,-0.01,-0.05,0.05
16.806882858276367,-0.03,-0.01,-0.05,0.05
16.81711196899414,-0.03,-0.01,-0.06,0.06
16.88052797317505,-0.03,-0.02,-0.05,0.06
16.88075304031372,-0.02,-0.01,-0.06,0.06
16.880897998809814,-0.02,-0.01,-0.06,0.06
16.881117820739746,-0.01,-0.02,-0.07,0.07
16.88129496574402,-0.01,-0.02,-0.06,0.06
16.8814640045166,-0.01,-0.01,-0.06,0.06
16.88643789291382,0.01,-0.02,-0.06,0.06
16.896219968795776,0.01,0.0,-0.06,0.06
16.906428813934326,0.02,0.0,-0.06,0.06
16.916347980499268,0.02,0.01,-0.06,0.06
16.92787194252014,0.02,0.0,-0.04,0.04
16.981855869293213,0.02,-0.01,-0.06,0.06
16.98206090927124,0.01,-0.01,-0.05,0.05
16.982287883758545,0.0,0.0,-0.06,0.06
16.982431888580322,0.0,0.0,-0.06,0.06
16.982597827911377,0.0,-0.01,-0.06,0.06
16.98582696914673,-0.01,-0.02,-0.05,0.05
16.99570608139038,-0.02,-0.02,-0.06,0.06
17.005826950073242,-0.03,-0.01,-0.06,0.06
17.015789031982422,-0.02,-0.02,-0.04,0.04
17.027036905288696,-0.02,-0.01,-0.06,0.06
17.081679821014404,-0.03,-0.02,-0.07,0.07
17.081864833831787,-0.03,-0.02,-0.05,0.06
17.082080841064453,-0.02,-0.01,-0.06,0.06
17.08225107192993,-0.01,-0.01,-0.06,0.06
17.08244490623474,-0.02,-0.01,-0.05,0.05
17.08524799346924,0.0,-0.01,-0.06,0.06
17.095645904541016,0.01,0.0,-0.06,0.06
17.10541582107544,0.02,0.0,-0.06,0.06
17.114943981170654,0.03,0.0,-0.06,0.06
17.12648105621338,0.02,0.0,-0.07,0.07
17.182075023651123,0.02,0.0,-0.05,0.05
17.182281970977783,0.02,-0.01,-0.06,0.06
17.182480812072754,0.01,0.0,-0.06,0.06
17.182668924331665,0.02,-0.01,-0.06,0.06
17.18283700942993,0.0,-0.01,-0.06,0.06
17.18479895591736,-0.02,-0.01,-0.06,0.06
17.194602966308594,-0.02,-0.01,-0.04,0.04
17.20466899871826,-0.03,-0.01,-0.05,0.05
17.214394092559814,-0.02,-0.01,-0.06,0.06
17.225789070129395,-0.02,-0.01,-0.07,0.07
17.282340049743652,-0.03,-0.01,-0.05,0.05
17.282522916793823,-0.03,-0.02,-0.05,0.06
17.282721996307373,-0.04,-0.02,-0.06,0.07
17.282938957214355,-0.02,-0.01,-0.05,0.05
17.28315782546997,0.0,-0.02,-0.06,0.06
17.283816814422607,0.0,-0.01,-0.06,0.06
17.29401683807373,0.01,-0.01,-0.04,0.04
17.3040189743042,0.02,-0.01,-0.05,0.05
17.31371307373047,0.02,-0.01,-0.05,0.05
17.325366020202637,0.03,0.0,-0.06,0.06
17.38226890563965,0.02,0.0,-0.07,0.07
17.382478952407837,0.02,-0.01,-0.06,0.06
17.382673978805542,0.01,0.0,-0.06,0.06
17.382872104644775,0.01,-0.01,-0.05,0.05
17.38307809829712,0.0,0.0,-0.05,0.05
17.38333296775818,0.0,0.0,-0.05,0.05
17.393476009368896,-0.01,0.0,-0.07,0.07
17.403729915618896,-0.02,-0.01,-0.05,0.05
17.413217067718506,-0.03,-0.02,-0.07,0.07
17.424654006958008,-0.03,-0.02,-0.04,0.05
17.48288583755493,-0.03,-0.02,-0.05,0.06
17.483276844024658,-0.04,-0.02,-0.06,0.07
17.48347496986389,-0.02,-0.02,-0.08,0.08
17.4836688041687,-0.01,-0.02,-0.06,0.06
17.483842849731445,-0.01,-0.02,-0.05,0.05
17.48403787612915,0.0,-0.02,-0.04,0.04
17.49287509918213,0.01,0.0,-0.05,0.05
17.502802848815918,0.02,0.0,-0.06,0.06
17.512662887573242,0.02,0.0,-0.06,0.06
17.524001121520996,0.01,0.0,-0.06,0.06
17.5835919380188,0.01,0.0,-0.05,0.05
17.583738803863525,0.01,0.0,-0.05,0.05
17.583947896957397,0.0,0.0,-0.06,0.06
17.584115982055664,0.01,0.0,-0.06,0.06
17.584314823150635,0.01,-0.01,-0.07,0.07
17.584489822387695,0.01,-0.01,-0.06,0.06
17.592205047607422,0.0,-0.01,-0.06,0.06
17.60231590270996,-0.01,-0.01,-0.07,0.07
17.612109899520874,-0.02,-0.02,-0.05,0.05
17.62369394302368,-0.03,-0.01,-0.05,0.05
17.68589210510254,-0.02,-0.01,-0.06,0.06
17.686098098754883,-0.02,-0.02,-0.05,0.05
17.686290979385376,-0.03,-0.01,-0.05,0.05
17.686479091644287,-0.03,-0.02,-0.04,0.05
17.686666011810303,-0.02,-0.02,-0.05,0.05
17.68688201904297,-0.01,-0.01,-0.06,0.06
17.69141697883606,0.0,-0.01,-0.07,0.07
17.701455116271973,0.01,-0.01,-0.05,0.05
17.71139097213745,0.01,-0.01,-0.05,0.05
17.722652912139893,0.01,-0.02,-0.05,0.05
17.784289836883545,0.02,-0.01,-0.05,0.05
17.784477949142456,0.02,-0.01,-0.07,0.07
17.78467893600464,0.03,-0.01,-0.06,0.06
17.78484797477722,0.01,-0.01,-0.06,0.06
17.784989833831787,0.01,-0.01,-0.06,0.06
17.785152912139893,0.0,-0.01,-0.06,0.06
17.790929794311523,0.0,-0.01,-0.07,0.07
17.800745010375977,-0.01,-0.01,-0.07,0.07
17.81093692779541,-0.02,-0.01,-0.06,0.06
17.822290897369385,-0.03,-0.01,-0.04,0.05
17.88501501083374,-0.04,-0.01,-0.05,0.06
17.88521099090576,-0.03,-0.01,-0.06,0.06
17.88541078567505,-0.02,-0.01,-0.07,0.07
17.885579109191895,-0.02,-0.02,-0.07,0.07
17.88575291633606,-0.02,-0.02,-0.06,0.06
17.885894775390625,-0.02,-0.02,-0.06,0.06
17.890480041503906,-0.01,-0.02,-0.05,0.05
17.900551795959473,0.01,-0.02,-0.05,0.05
17.91044592857361,0.02,-0.02,-0.06,0.06
17.921565055847168,0.03,-0.01,-0.06,0.06
17.930445909500122,0.02,0.0,-0.06,0.06
17.9856219291687,0.03,0.0,-0.05,0.05
17.985817909240723,0.02,0.01,-0.05,0.05
17.98600697517395,0.01,0.0,-0.05,0.05
17.98618507385254,0.01,0.0,-0.07,0.07
17.98640203475952,0.0,-0.01,-0.06,0.06
17.989768981933594,-0.01,-0.01,-0.06,0.06
17.9996337890625,-0.01,-0.02,-0.05,0.05
18.009780883789062,-0.02,-0.01,-0.05,0.05
18.020948886871338,-0.02,-0.01,-0.06,0.06
18.029629945755005,-0.01,-0.02,-0.06,0.06
18.085357904434204,-0.02,-0.02,-0.07,0.07
18.085506916046143,-0.02,-0.02,-0.07,0.07
18.085689067840576,-0.02,-0.02,-0.05,0.05
18.085866928100586,-0.02,-0.02,-0.04,0.04
18.086063861846924,0.0,-0.02,-0.06,0.06
18.089162826538086,0.0,-0.01,-0.05,0.05
18.098994970321655,0.0,-0.01,-0.05,0.05
18.109088897705078,0.0,-0.01,-0.05,0.05
18.17377281188965,0.0,-0.01,-0.06,0.06
18.17398190498352,0.01,-0.01,-0.04,0.04
18.174182891845703,0.02,-0.01,-0.05,0.05
18.174400806427002,0.01,-0.02,-0.06,0.06
18.174567937850952,0.01,-0.01,-0.06,0.06
18.17473292350769,0.01,0.0,-0.06,0.06
18.178602933883667,0.01,0.0,-0.06,0.06
18.188884973526,0.01,0.0,-0.05,0.05
18.198498964309692,-0.01,0.0,-0.06,0.06
18.20882797241211,-0.01,-0.02,-0.05,0.05
18.219459056854248,-0.01,-0.02,-0.05,0.05
18.22845697402954,-0.01,-0.03,-0.04,0.05
18.286401987075806,-0.03,-0.03,-0.06,0.07
18.286590099334717,-0.03,-0.02,-0.06,0.06
18.286780834197998,-0.02,-0.01,-0.06,0.06
18.28695297241211,-0.02,0.0,-0.06,0.06
18.28712797164917,-0.02,0.0,-0.07,0.07
18.287954807281494,-0.02,-0.01,-0.05,0.05
18.297996997833252,0.0,-0.01,-0.06,0.06
18.308178901672363,0.0,-0.02,-0.06,0.06
18.31881594657898,0.01,-0.01,-0.06,0.06
18.327961921691895,0.01,-0.01,-0.06,0.06
18.385653018951416,0.01,0.0,-0.05,0.05
18.385803937911987,0.01,0.0,-0.05,0.05
18.38600778579712,0.01,0.01,-0.06,0.06
18.386198043823242,0.02,0.0,-0.06,0.06
18.38638401031494,0.0,-0.01,-0.06,0.06
18.3873291015625,-0.01,-0.01,-0.06,0.06
18.397282123565674,-0.01,-0.01,-0.06,0.06
18.40741777420044,-0.01,-0.01,-0.05,0.05
18.418165922164917,-0.01,-0.01,-0.05,0.05
18.427419900894165,-0.03,-0.01,-0.05,0.05
18.48604106903076,-0.03,-0.01,-0.05,0.05
18.486249923706055,-0.02,-0.02,-0.05,0.05
18.486462116241455,-0.02,-0.02,-0.07,0.07
18.486644983291626,-0.02,-0.02,-0.06,0.06
18.487005949020386,-0.01,-0.01,-0.05,0.05
18.487174034118652,-0.01,-0.02,-0.05,0.05
18.49680805206299,0.0,0.0,-0.07,0.07
18.506810903549194,0.0,0.0,-0.06,0.06
18.517704010009766,0.01,0.0,-0.05,0.05
18.526527881622314,0.01,0.0,-0.05,0.05
18.58631706237793,0.01,-0.01,-0.04,0.04
18.58665180206299,0.0,-0.01,-0.05,0.05
18.586877822875977,0.01,0.0,-0.06,0.06
18.587093830108643,0.0,-0.01,-0.05,0.05
18.587270975112915,0.0,-0.01,-0.06,0.06
18.587435960769653,-0.01,-0.01,-0.06,0.06
18.596214771270752,-0.02,-0.01,-0.05,0.05
18.60641098022461,-0.01,-0.02,-0.06,0.06
18.61765694618225,-0.02,-0.03,-0.05,0.06
18.626040935516357,-0.03,-0.03,-0.06,0.07
18.68676996231079,-0.02,-0.02,-0.06,0.06
18.686975955963135,-0.01,-0.02,-0.05,0.05
18.68715000152588,-0.01,-0.01,-0.05,0.05
18.687317848205566,-0.01,0.0,-0.05,0.05
18.687485933303833,0.0,0.0,-0.05,0.05
18.687660932540894,0.0,0.0,-0.06,0.06
18.69556188583374,0.0,0.0,-0.07,0.07
18.705662965774536,0.0,0.0,-0.06,0.06
18.769107818603516,0.0,-0.01,-0.07,0.07
18.769315004348755,0.0,-0.02,-0.05,0.05
18.7695369720459,0.01,-0.01,-0.06,0.06
18.769681930541992,0.01,-0.01,-0.06,0.06
18.769824981689453,0.01,-0.01,-0.06,0.06
18.770020008087158,0.0,-0.01,-0.05,0.05
18.774879932403564,0.0,-0.01,-0.06,0.06
18.78491997718811,-0.01,-0.02,-0.06,0.06
18.794989109039307,-0.02,-0.02,-0.06,0.06
18.80494499206543,-0.02,-0.01,-0.05,0.05
18.816260814666748,-0.02,-0.01,-0.05,0.05
18.870140075683594,-0.02,-0.01,-0.05,0.05
18.870285034179688,-0.02,-0.01,-0.05,0.05
18.870473861694336,-0.02,-0.01,-0.06,0.06
18.870677947998047,-0.02,-0.02,-0.05,0.05
18.870876789093018,-0.01,-0.02,-0.06,0.06
18.874316930770874,-0.01,-0.02,-0.06,0.06
18.884274005889893,0.0,-0.02,-0.06,0.06
18.894535064697266,0.0,-0.01,-0.06,0.06
18.90419912338257,0.01,-0.02,-0.06,0.06
18.915600776672363,0.01,-0.01,-0.06,0.06
18.970032930374146,0.01,-0.01,-0.06,0.06
18.970212936401367,0.02,-0.01,-0.06,0.06
18.97038197517395,0.0,-0.01,-0.06,0.06
18.97056484222412,0.0,-0.01,-0.07,0.07
18.970765113830566,-0.01,-0.01,-0.05,0.05
18.9737868309021,-0.02,-0.02,-0.05,0.05
18.98403787612915,-0.02,-0.01,-0.05,0.05
18.993988037109375,-0.02,-0.01,-0.06,0.06
19.003647804260254,-0.01,-0.02,-0.06,0.06
19.014787912368774,-0.01,-0.02,-0.05,0.05
19.06972885131836,-0.01,-0.02,-0.06,0.06
19.069933891296387,-0.01,-0.01,-0.08,0.08
19.07013511657715,-0.01,-0.02,-0.06,0.06
19.07031011581421,-0.01,-0.02,-0.05,0.05
19.070528030395508,0.0,-0.03,-0.06,0.06
19.073216915130615,0.0,-0.02,-0.07,0.07
19.083487033843994,0.01,-0.01,-0.06,0.06
19.093328952789307,0.01,0.0,-0.06,0.06
19.10296106338501,0.0,0.0,-0.06,0.06
19.114243030548096,0.0,-0.01,-0.06,0.06
19.170083045959473,0.0,0.0,-0.05,0.05
19.170289993286133,0.0,-0.01,-0.06,0.06
19.17048192024231,-0.01,-0.02,-0.06,0.06
19.170679092407227,-0.01,-0.01,-0.07,0.07
19.17087411880493,-0.01,-0.02,-0.05,0.05
19.17255687713623,-0.02,-0.01,-0.07,0.07
19.182676792144775,-0.01,-0.01,-0.06,0.06
19.19267511367798,0.0,-0.01,-0.05,0.05
19.202308893203735,0.0,-0.01,-0.05,0.05
19.213890075683594,-0.01,-0.02,-0.07,0.07
19.270452976226807,0.0,-0.01,-0.06,0.06
19.270639896392822,0.0,-0.01,-0.07,0.07
19.27081799507141,0.0,-0.01,-0.06,0.06
19.270960807800293,0.0,-0.01,-0.06,0.06
19.27117681503296,0.01,-0.02,-0.05,0.05
19.27194881439209,0.0,-0.01,-0.06,0.06
19.28222393989563,0.0,-0.01,-0.05,0.05
19.291846990585327,0.0,-0.01,-0.05,0.05
19.30192804336548,0.0,0.0,-0.05,0.05
19.313282012939453,0.0,-0.01,-0.06,0.06
19.370902061462402,0.0,0.0,-0.06,0.06
19.37114906311035,-0.01,-0.01,-0.07,0.07
19.371490001678467,-0.01,-0.01,-0.06,0.06
19.37168598175049,-0.02,-0.01,-0.07,0.07
19.37190294265747,-0.01,-0.02,-0.05,0.05
19.372068881988525,-0.02,-0.02,-0.05,0.05
19.381371021270752,-0.01,-0.02,-0.05,0.05
19.391398906707764,0.0,-0.02,-0.05,0.05
19.4015851020813,0.0,-0.01,-0.05,0.05
19.412710905075073,-0.01,-0.01,-0.06,0.06
19.47104501724243,0.0,-0.01,-0.05,0.05
19.471324920654297,0.0,-0.01,-0.05,0.05
19.471494913101196,-0.01,-0.01,-0.05,0.05
19.471694946289062,0.0,-0.01,-0.06,0.06
19.471869945526123,0.0,-0.01,-0.05,0.05
19.472043991088867,0.0,-0.01,-0.06,0.06
19.4808030128479,0.0,-0.01,-0.05,0.05
19.49080491065979,0.0,-0.01,-0.06,0.06
19.500715970993042,0.01,-0.01,-0.06,0.06
19.511948108673096,0.0,-0.01,-0.06,0.06
19.570932865142822,0.0,0.0,-0.06,0.06
19.571298122406006,-0.01,-0.01,-0.07,0.07
19.571480989456177,-0.01,-0.01,-0.06,0.06
19.571667909622192,-0.02,-0.02,-0.06,0.06
19.571862936019897,-0.02,-0.01,-0.05,0.05
19.57207989692688,-0.03,-0.02,-0.06,0.06
19.580219984054565,-0.02,-0.01,-0.04,0.04
19.590362071990967,-0.01,-0.01,-0.05,0.05
19.600111961364746,-0.02,-0.01,-0.05,0.05
19.611446857452393,0.0,-0.02,-0.05,0.05
19.6712749004364,0.0,-0.02,-0.05,0.05
19.67144799232483,0.01,-0.02,-0.05,0.05
19.67165493965149,0.01,-0.01,-0.06,0.06
19.671830892562866,0.01,-0.01,-0.05,0.05
19.672028064727783,0.02,-0.01,-0.06,0.06
19.672214031219482,0.01,0.0,-0.06,0.06
19.67955493927002,0.01,-0.01,-0.06,0.06
19.689655780792236,0.01,-0.01,-0.06,0.06
19.69947099685669,0.01,-0.01,-0.06,0.06
19.761558055877686,0.0,0.0,-0.06,0.06
19.761754989624023,-0.01,-0.01,-0.06,0.06
19.761982917785645,-0.02,0.0,-0.05,0.05
19.7621808052063,-0.03,0.0,-0.07,0.07
19.76235580444336,-0.03,0.0,-0.06,0.06
19.762550830841064,-0.03,-0.01,-0.07,0.07
19.769392013549805,-0.02,-0.02,-0.06,0.06
19.779211044311523,-0.03,-0.02,-0.06,0.06
19.788827896118164,-0.02,-0.02,-0.04,0.04
19.79895782470703,-0.01,-0.03,-0.05,0.05
19.810296058654785,0.0,-0.03,-0.04,0.05
19.818843841552734,0.01,-0.02,-0.05,0.05
19.872318983078003,0.01,-0.01,-0.06,0.06
19.872518062591553,0.02,-0.02,-0.06,0.06
19.87270998954773,0.01,-0.01,-0.06,0.06
19.87287712097168,0.01,0.0,-0.06,0.06
19.87301993370056,0.01,0.0,-0.06,0.06
19.87834596633911,0.01,0.0,-0.05,0.05
19.88853693008423,0.01,0.01,-0.06,0.06
19.898313999176025,0.0,0.01,-0.06,0.06
19.909515857696533,0.0,0.01,-0.05,0.05
19.91852903366089,-0.01,0.0,-0.06,0.06
19.97107696533203,-0.02,-0.01,-0.07,0.07
19.971288919448853,-0.02,0.0,-0.06,0.06
19.971458911895752,-0.02,-0.01,-0.06,0.06
19.971645832061768,-0.03,-0.02,-0.06,0.06
19.97178888320923,-0.03,-0.02,-0.06,0.06
19.977728843688965,-0.03,-0.03,-0.06,0.07
19.987753868103027,-0.01,-0.02,-0.05,0.05
19.997668981552124,-0.01,-0.02,-0.05,0.05
20.00893497467041,-0.01,-0.03,-0.05,0.05
20.017744064331055,-0.01,-0.02,-0.05,0.05
20.071113109588623,0.0,-0.01,-0.05,0.05
20.0713210105896,0.0,0.0,-0.06,0.06
20.071497917175293,0.0,-0.01,-0.06,0.06
20.071672916412354,0.0,-0.01,-0.07,0.07
20.071868896484375,0.0,0.0,-0.06,0.06
20.07715892791748,0.01,0.01,-0.06,0.06
20.087207794189453,0.01,0.01,-0.06,0.06
20.097200870513916,0.0,0.0,-0.06,0.06
20.108220100402832,0.01,-0.01,-0.06,0.06
20.117088794708252,0.01,-0.01,-0.06,0.06
20.17080593109131,-0.01,-0.02,-0.05,0.05
20.17101287841797,-0.02,-0.02,-0.07,0.07
20.171216011047363,-0.02,-0.03,-0.06,0.06
20.17143201828003,-0.01,-0.02,-0.05,0.05
20.17160701751709,-0.01,-0.02,-0.06,0.06
20.176657915115356,-0.02,-0.02,-0.06,0.06
20.186702966690063,-0.02,-0.02,-0.06,0.06
20.1965069770813,-0.02,-0.01,-0.05,0.05
20.207534790039062,-0.01,-0.01,-0.05,0.05
20.2166109085083,-0.01,-0.01,-0.06,0.06
20.27129292488098,-0.01,-0.01,-0.06,0.06
20.271476984024048,0.0,-0.01,-0.06,0.06
20.271649837493896,0.01,-0.01,-0.06,0.06
20.271792888641357,0.01,-0.01,-0.06,0.06
20.271958827972412,0.01,0.0,-0.06,0.06
20.275900840759277,0.02,0.0,-0.06,0.06
20.28610897064209,0.03,0.0,-0.06,0.06
20.2961688041687,0.02,0.0,-0.06,0.06
20.3070387840271,0.01,-0.01,-0.06,0.06
20.315860986709595,0.0,-0.01,-0.05,0.05
20.371777057647705,0.0,-0.02,-0.05,0.05
20.371988773345947,-0.01,-0.02,-0.07,0.07
20.372161865234375,-0.03,-0.02,-0.07,0.07
20.372357845306396,-0.03,-0.01,-0.06,0.06
20.372500896453857,-0.03,-0.01,-0.06,0.06
20.37533712387085,-0.02,0.0,-0.05,0.05
20.38558793067932,-0.03,0.0,-0.04,0.05
20.395612001419067,-0.03,-0.01,-0.05,0.05
20.406346797943115,-0.02,-0.01,-0.05,0.05
20.415235996246338,-0.01,-0.01,-0.07,0.07
20.472278118133545,0.0,-0.02,-0.07,0.07
20.47245192527771,0.0,-0.01,-0.07,0.07
20.47265911102295,0.02,-0.01,-0.05,0.05
20.472880840301514,0.03,0.0,-0.06,0.06
20.473054885864258,0.04,0.0,-0.06,0.07
20.474714994430542,0.03,0.0,-0.06,0.06
20.484699964523315,0.03,0.0,-0.06,0.06
20.494772911071777,0.01,-0.01,-0.05,0.05
20.506109952926636,-0.01,-0.01,-0.05,0.05
20.514859914779663,-0.01,-0.01,-0.06,0.06
20.572257041931152,-0.02,-0.01,-0.07,0.07
20.57245397567749,-0.03,-0.02,-0.07,0.07
20.572654962539673,-0.03,-0.01,-0.08,0.08
20.572850942611694,-0.04,-0.01,-0.06,0.07
20.573067903518677,-0.03,-0.02,-0.05,0.06
20.574062824249268,-0.04,-0.01,-0.06,0.07
20.584196090698242,-0.03,-0.02,-0.06,0.06
20.594018936157227,-0.03,-0.02,-0.05,0.06
20.65627384185791,-0.02,-0.02,-0.04,0.04
20.656500816345215,-0.01,-0.01,-0.07,0.07
20.656670093536377,0.0,-0.01,-0.07,0.07
20.6568660736084,0.02,-0.01,-0.06,0.06
20.657033920288086,0.02,0.0,-0.06,0.06
20.657198905944824,0.02,-0.01,-0.06,0.06
20.663651943206787,0.02,0.0,-0.06,0.06
20.673597812652588,0.02,0.0,-0.04,0.04
20.68358278274536,0.02,-0.01,-0.05,0.05
20.693538904190063,0.01,-0.01,-0.06,0.06
20.70477294921875,0.01,-0.01,-0.06,0.06
20.756349086761475,0.0,-0.01,-0.07,0.07
20.756497859954834,0.0,-0.01,-0.07,0.07
20.756700038909912,-0.02,-0.01,-0.06,0.06
20.756890773773193,-0.01,-0.02,-0.06,0.06
20.757057905197144,-0.02,-0.02,-0.06,0.06
20.763036966323853,-0.04,-0.01,-0.06,0.07
20.772891998291016,-0.03,-0.02,-0.06,0.06
20.783046007156372,-0.03,-0.01,-0.05,0.05
20.793034076690674,-0.03,-0.02,-0.04,0.05
20.804161071777344,-0.02,-0.01,-0.05,0.05
20.85656499862671,-0.01,-0.01,-0.06,0.06
20.85676383972168,0.0,0.0,-0.06,0.06
20.85696792602539,0.0,-0.01,-0.05,0.05
20.857184886932373,0.01,0.0,-0.06,0.06
20.857376098632812,0.03,-0.01,-0.06,0.06
20.862371921539307,0.04,-0.01,-0.06,0.07
20.872787952423096,0.03,0.0,-0.07,0.07
20.882415771484375,0.03,-0.01,-0.06,0.06
20.892146110534668,0.02,-0.01,-0.06,0.06
20.903779983520508,0.02,0.0,-0.06,0.06
20.957051992416382,0.01,-0.01,-0.07,0.07
20.95728302001953,0.0,0.0,-0.06,0.06
20.957480907440186,-0.01,0.0,-0.07,0.07
20.957697868347168,-0.03,-0.02,-0.06,0.06
20.957906007766724,-0.04,-0.01,-0.05,0.06
20.9618239402771,-0.05,-0.02,-0.05,0.07
20.971805095672607,-0.04,-0.02,-0.05,0.06
20.981871128082275,-0.04,-0.02,-0.06,0.07
20.99173092842102,-0.02,-0.02,-0.07,0.07
21.003026962280273,-0.02,-0.01,-0.05,0.05
21.05806589126587,-0.01,-0.01,-0.06,0.06
21.05829691886902,0.0,-0.02,-0.07,0.07
21.058518886566162,0.02,-0.01,-0.06,0.06
21.05871891975403,0.01,-0.01,-0.07,0.07
21.058934926986694,0.02,0.0,-0.06,0.06
21.06140899658203,0.03,-0.01,-0.04,0.05
21.07122278213501,0.03,0.0,-0.06,0.06
21.0812668800354,0.03,-0.01,-0.05,0.05
21.091061115264893,0.02,0.0,-0.06,0.06
21.102412939071655,0.03,0.0,-0.06,0.06
21.15736198425293,0.01,0.0,-0.07,0.07
21.157591819763184,-0.01,-0.01,-0.06,0.06
21.15778398513794,-0.03,-0.02,-0.06,0.06
21.157927989959717,-0.03,-0.02,-0.06,0.06
21.15807008743286,-0.03,-0.02,-0.06,0.06
21.16056489944458,-0.04,-0.01,-0.05,0.06
21.170621871948242,-0.03,-0.02,-0.06,0.06
21.180859088897705,-0.03,-0.02,-0.04,0.05
21.19041395187378,-0.02,-0.01,-0.04,0.04
21.20189595222473,-0.02,-0.03,-0.06,0.06
21.258069038391113,-0.01,-0.02,-0.06,0.06
21.258277893066406,-0.01,-0.01,-0.07,0.07
21.258480072021484,0.0,-0.01,-0.05,0.05
21.258678913116455,0.01,-0.01,-0.03,0.03
21.258874893188477,0.01,0.0,-0.04,0.04
21.259902954101562,0.02,0.0,-0.05,0.05
21.270035982131958,0.03,0.0,-0.06,0.06
21.27994203567505,0.03,0.0,-0.06,0.06
21.289916038513184,0.02,0.0,-0.06,0.06
21.30116081237793,0.02,-0.01,-0.06,0.06
21.35863208770752,0.01,-0.01,-0.06,0.06
21.358823776245117,0.01,-0.01,-0.07,0.07
21.35901689529419,0.0,-0.01,-0.07,0.07
21.359189987182617,-0.01,-0.01,-0.07,0.07
21.35955500602722,-0.02,-0.01,-0.06,0.06
21.359745025634766,-0.04,-0.01,-0.05,0.06
21.36947798728943,-0.03,-0.02,-0.06,0.06
21.37943696975708,-0.04,-0.02,-0.05,0.06
21.389283895492554,-0.03,-0.02,-0.05,0.06
21.400599002838135,-0.03,-0.03,-0.05,0.06
21.458985805511475,-0.01,-0.03,-0.06,0.06
21.459327936172485,-0.01,-0.01,-0.07,0.07
21.459528923034668,0.01,-0.01,-0.06,0.06
21.459697008132935,0.02,-0.01,-0.06,0.06
21.459861993789673,0.02,0.0,-0.06,0.06
21.460035800933838,0.02,0.0,-0.05,0.05
21.46880793571472,0.02,-0.01,-0.06,0.06
21.478810787200928,0.02,-0.01,-0.05,0.05
21.488728046417236,0.02,-0.01,-0.06,0.06
21.49991798400879,0.02,-0.01,-0.06,0.06
21.559173107147217,0.01,0.0,-0.06,0.06
21.5594539642334,0.01,0.0,-0.06,0.06
21.559624910354614,-0.02,0.0,-0.06,0.06
21.55979299545288,-0.02,-0.01,-0.06,0.06
21.56000804901123,-0.03,-0.02,-0.05,0.06
21.56017780303955,-0.03,-0.02,-0.06,0.06
21.568262100219727,-0.04,-0.03,-0.06,0.07
21.57820701599121,-0.04,-0.02,-0.05,0.06
21.588093996047974,-0.02,-0.02,-0.06,0.06
21.59937596321106,-0.02,-0.02,-0.05,0.05
21.660062789916992,-0.02,-0.02,-0.05,0.05
21.6602840423584,-0.01,-0.02,-0.06,0.06
21.66045594215393,0.0,-0.02,-0.06,0.06
21.660650968551636,0.01,-0.01,-0.06,0.06
21.66084909439087,0.02,-0.01,-0.04,0.04
21.661046028137207,0.02,0.0,-0.05,0.05
21.6677188873291,0.03,0.0,-0.05,0.05
21.677799940109253,0.04,0.01,-0.06,0.07
21.68771195411682,0.02,0.01,-0.07,0.07
21.69878387451172,0.02,0.0,-0.06,0.06
21.707388877868652,0.01,-0.01,-0.06,0.06
21.759585857391357,0.0,-0.01,-0.06,0.06
21.759757041931152,-0.01,-0.01,-0.06,0.06
21.759984016418457,-0.02,-0.02,-0.07,0.07
21.76018190383911,-0.03,-0.02,-0.06,0.06
21.76038098335266,-0.03,-0.01,-0.05,0.05
21.767004013061523,-0.03,-0.02,-0.05,0.06
21.777094841003418,-0.03,-0.02,-0.06,0.06
21.78697681427002,-0.02,-0.02,-0.05,0.05
21.79810094833374,-0.02,-0.01,-0.07,0.07
21.80686092376709,-0.02,-0.02,-0.05,0.05
21.859996795654297,-0.01,-0.01,-0.05,0.05
21.860184907913208,-0.01,-0.01,-0.06,0.06
21.860355854034424,0.0,-0.01,-0.06,0.06
21.8605740070343,0.02,0.0,-0.05,0.05
21.860793113708496,0.03,-0.01,-0.06,0.06
21.866413116455078,0.03,0.0,-0.06,0.06
21.876307010650635,0.03,0.0,-0.06,0.06
21.886362075805664,0.03,-0.01,-0.06,0.06
21.897576808929443,0.02,0.0,-0.07,0.07
21.906498908996582,0.01,-0.01,-0.05,0.05
21.95986795425415,0.01,-0.01,-0.06,0.06
21.960041046142578,0.0,-0.01,-0.06,0.06
21.96021294593811,-0.02,-0.01,-0.06,0.06
21.960425853729248,-0.03,-0.02,-0.05,0.06
21.9605929851532,-0.03,-0.02,-0.06,0.06
21.965898036956787,-0.03,-0.02,-0.07,0.07
21.975603103637695,-0.03,-0.01,-0.05,0.05
21.985785007476807,-0.03,-0.01,-0.06,0.06
21.996849060058594,-0.03,-0.02,-0.05,0.06
22.005806922912598,-0.02,-0.02,-0.05,0.05
22.05985689163208,-0.01,-0.01,-0.07,0.07
22.06008291244507,0.0,0.0,-0.06,0.06
22.060274124145508,0.01,-0.01,-0.06,0.06
22.060471057891846,0.01,0.0,-0.04,0.04
22.060686111450195,0.03,-0.01,-0.06,0.06
22.065099000930786,0.04,-0.01,-0.06,0.07
22.075111865997314,0.04,0.0,-0.05,0.06
22.085320949554443,0.02,0.0,-0.06,0.06
22.096147060394287,0.02,-0.01,-0.07,0.07
22.105021953582764,0.01,-0.01,-0.06,0.06
22.160006999969482,0.0,0.0,-0.07,0.07
22.160202980041504,-0.01,-0.01,-0.07,0.07
22.16040277481079,-0.02,-0.01,-0.05,0.05
22.16062307357788,-0.03,-0.02,-0.06,0.06
22.1607928276062,-0.03,-0.01,-0.06,0.06
22.164610862731934,-0.04,-0.01,-0.05,0.06
22.17458486557007,-0.04,-0.02,-0.05,0.06
22.184871912002563,-0.03,-0.02,-0.06,0.06
22.19549798965454,-0.03,-0.02,-0.06,0.06
22.204493045806885,-0.02,-0.02,-0.07,0.07
22.26038098335266,-0.01,-0.02,-0.06,0.06
22.260531902313232,-0.01,-0.02,-0.06,0.06
22.260726928710938,0.01,-0.01,-0.06,0.06
22.26094698905945,0.02,-0.02,-0.05,0.05
22.26116394996643,0.04,-0.01,-0.06,0.07
22.26384401321411,0.04,0.0,-0.06,0.07
22.274170875549316,0.02,0.0,-0.05,0.05
22.283942937850952,0.03,0.0,-0.05,0.05
22.294954776763916,0.02,0.0,-0.06,0.06
22.303927898406982,0.02,0.0,-0.07,0.07
22.36078405380249,0.0,-0.01,-0.06,0.06
22.360989093780518,-0.02,-0.01,-0.07,0.07
22.361186981201172,-0.01,-0.01,-0.06,0.06
22.361352920532227,-0.03,-0.01,-0.06,0.06
22.361525058746338,-0.04,-0.01,-0.06,0.07
22.363362789154053,-0.03,-0.01,-0.07,0.07
22.37336778640747,-0.02,-0.01,-0.06,0.06
22.383677005767822,-0.03,-0.02,-0.07,0.07
22.394548892974854,-0.03,-0.02,-0.05,0.06
22.403257846832275,-0.03,-0.01,-0.06,0.06
22.461359977722168,-0.01,-0.02,-0.05,0.05
22.461567878723145,-0.01,-0.01,-0.06,0.06
22.46178889274597,0.0,-0.02,-0.05,0.05
22.46198081970215,0.01,-0.01,-0.05,0.05
22.462167978286743,0.02,0.0,-0.05,0.05
22.46266508102417,0.02,0.0,-0.06,0.06
22.472743034362793,0.02,-0.01,-0.07,0.07
22.482683897018433,0.01,-0.01,-0.07,0.07
22.544538021087646,0.02,-0.01,-0.07,0.07
22.544774055480957,0.0,0.0,-0.08,0.08
22.5449800491333,0.01,0.0,-0.05,0.05
22.545146942138672,-0.01,0.0,-0.05,0.05
22.545321941375732,-0.01,0.0,-0.06,0.06
22.54548978805542,-0.01,-0.02,-0.06,0.06
22.552419900894165,-0.02,-0.02,-0.06,0.06
22.56198000907898,-0.02,-0.02,-0.06,0.06
22.572210788726807,-0.03,-0.02,-0.05,0.06
22.582228899002075,-0.04,-0.02,-0.06,0.07
22.645797967910767,-0.03,-0.02,-0.06,0.06
22.64599609375,-0.02,-0.01,-0.06,0.06
22.646164894104004,-0.01,-0.01,-0.06,0.06
22.646331787109375,0.0,-0.01,-0.06,0.06
22.646553993225098,0.01,0.0,-0.05,0.05
22.646751880645752,0.01,-0.01,-0.07,0.07
22.651750087738037,0.01,-0.01,-0.05,0.05
22.661513805389404,0.02,-0.02,-0.06,0.06
22.671607971191406,0.02,-0.01,-0.07,0.07
22.68160390853882,0.02,0.0,-0.06,0.06
22.692731857299805,0.02,-0.01,-0.05,0.05
22.74504804611206,0.01,0.0,-0.06,0.06
22.745237827301025,0.01,0.0,-0.07,0.07
22.745408058166504,0.0,0.0,-0.07,0.07
22.745627880096436,-0.02,-0.01,-0.06,0.06
22.745845794677734,-0.03,-0.02,-0.07,0.07
22.75098490715027,-0.03,-0.02,-0.06,0.06
22.761109828948975,-0.03,-0.02,-0.05,0.06
22.77101182937622,-0.04,-0.02,-0.05,0.06
22.78083086013794,-0.03,-0.01,-0.06,0.06
22.792358875274658,-0.03,-0.01,-0.06,0.06
22.84598207473755,-0.02,-0.01,-0.07,0.07
22.84618902206421,-0.01,-0.01,-0.06,0.06
22.846390962600708,-0.02,-0.01,-0.07,0.07
22.846590995788574,0.0,-0.01,-0.05,0.05
22.84675693511963,0.01,-0.01,-0.05,0.05
22.850401878356934,0.02,-0.01,-0.06,0.06
22.860394954681396,0.03,-0.01,-0.06,0.06
22.870545864105225,0.03,-0.01,-0.06,0.06
22.88013792037964,0.02,-0.01,-0.06,0.06
22.891611099243164,0.02,0.01,-0.06,0.06
22.945441007614136,0.01,0.0,-0.06,0.06
22.945655822753906,0.0,0.0,-0.05,0.05
22.945839881896973,0.0,0.0,-0.06,0.06
22.946058988571167,-0.01,-0.01,-0.07,0.07
22.946259021759033,-0.03,-0.01,-0.05,0.05
22.949763774871826,-0.03,-0.01,-0.05,0.05
22.959743976593018,-0.03,-0.01,-0.05,0.05
22.969882011413574,-0.03,-0.02,-0.06,0.06
22.979512929916382,-0.03,-0.02,-0.06,0.06
22.99098491668701,-0.01,-0.02,-0.06,0.06
23.04637098312378,-0.01,-0.01,-0.06,0.06
23.04656195640564,-0.01,-0.01,-0.07,0.07
23.04676580429077,-0.01,-0.02,-0.06,0.06
23.046984910964966,0.0,-0.01,-0.05,0.05
23.047163009643555,0.0,-0.01,-0.06,0.06
23.049138069152832,0.01,-0.01,-0.07,0.07
23.0592098236084,0.02,0.0,-0.06,0.06
23.069221019744873,0.02,0.0,-0.06,0.06
23.079193115234375,0.01,-0.01,-0.04,0.04
23.090451955795288,0.0,0.0,-0.05,0.05
23.145948886871338,0.0,0.0,-0.06,0.06
23.14613699913025,0.0,0.0,-0.07,0.07
23.146342992782593,0.0,-0.01,-0.06,0.06
23.14653992652893,-0.01,-0.01,-0.07,0.07
23.146734952926636,-0.01,-0.02,-0.06,0.06
23.148529052734375,-0.01,-0.01,-0.05,0.05
23.15859889984131,-0.01,-0.01,-0.06,0.06
23.16865110397339,-0.01,-0.02,-0.06,0.06
23.178714990615845,-0.02,-0.02,-0.06,0.06
23.18973684310913,-0.02,-0.02,-0.06,0.06
23.246180057525635,-0.02,-0.02,-0.05,0.05
23.246408939361572,-0.01,-0.01,-0.06,0.06
23.24661111831665,0.0,-0.01,-0.07,0.07
23.246787071228027,0.0,-0.01,-0.06,0.06
23.24693012237549,0.0,-0.01,-0.06,0.06
23.24780511856079,0.0,-0.01,-0.06,0.06
23.25783681869507,0.0,-0.01,-0.07,0.07
23.26806402206421,0.0,0.0,-0.06,0.06
23.278050899505615,0.0,-0.01,-0.06,0.06
23.289165019989014,0.0,-0.01,-0.05,0.05
23.34774684906006,-0.01,-0.01,-0.05,0.05
23.348089933395386,0.0,-0.01,-0.06,0.06
23.34828281402588,-0.01,0.0,-0.06,0.06
23.348460912704468,-0.01,0.0,-0.05,0.05
23.3486270904541,-0.01,-0.01,-0.05,0.05
23.34879493713379,0.0,-0.01,-0.05,0.05
23.357422828674316,-0.01,-0.02,-0.06,0.06
23.367417812347412,-0.02,-0.02,-0.06,0.06
23.377334117889404,-0.01,-0.03,-0.06,0.06
23.388668060302734,-0.01,-0.01,-0.05,0.05
23.447138786315918,0.0,-0.01,-0.06,0.06
23.447447776794434,0.01,-0.01,-0.06,0.06
23.44763994216919,0.0,0.0,-0.06,0.06
23.447839975357056,-0.01,0.0,-0.07,0.07
23.44800591468811,0.01,0.0,-0.07,0.07
23.448168992996216,0.0,0.0,-0.07,0.07
23.456757068634033,0.0,0.0,-0.07,0.07
23.466851949691772,0.01,-0.01,-0.06,0.06
23.476659774780273,-0.01,-0.01,-0.06,0.06
23.48788094520569,0.01,-0.01,-0.06,0.06
23.54806089401245,0.0,-0.01,-0.06,0.06
23.548280954360962,-0.01,-0.01,-0.05,0.05
23.548471927642822,-0.01,-0.01,-0.06,0.06
23.548661947250366,-0.02,-0.02,-0.06,0.06
23.548857927322388,-0.02,-0.01,-0.07,0.07
23.549031972885132,-0.02,-0.01,-0.06,0.06
23.556309938430786,-0.02,-0.01,-0.05,0.05
23.566155910491943,-0.02,0.0,-0.06,0.06
23.57615089416504,-0.01,0.0,-0.07,0.07
23.58730983734131,0.0,0.0,-0.07,0.07
23.64784288406372,-0.01,0.0,-0.07,0.07
23.648086071014404,0.0,-0.01,-0.05,0.05
23.648257970809937,0.01,-0.01,-0.05,0.05
23.64843511581421,0.01,-0.01,-0.06,0.06
23.64857792854309,0.01,-0.01,-0.06,0.06
23.648772954940796,0.0,-0.01,-0.07,0.07
23.65558910369873,0.0,0.0,-0.08,0.08
23.665560960769653,0.0,0.0,-0.07,0.07
23.675519943237305,0.0,-0.01,-0.05,0.05
23.68679189682007,-0.01,0.0,-0.07,0.07
23.695740938186646,-0.02,-0.01,-0.06,0.06
23.748397827148438,-0.02,0.0,-0.06,0.06
23.74881410598755,-0.02,-0.01,-0.05,0.05
23.749035835266113,-0.03,-0.02,-0.04,0.05
23.749227046966553,-0.03,-0.01,-0.05,0.05
23.749423027038574,-0.02,-0.01,-0.06,0.06
23.755043983459473,-0.01,-0.01,-0.05,0.05
23.765774965286255,-0.01,-0.01,-0.06,0.06
23.77493906021118,0.0,-0.01,-0.06,0.06
23.785989999771118,0.0,-0.01,-0.05,0.05
23.795013904571533,0.0,0.0,-0.07,0.07
23.8476619720459,0.01,-0.01,-0.06,0.06
23.847814083099365,0.01,-0.01,-0.06,0.06
23.848010063171387,0.02,0.0,-0.06,0.06
23.848177909851074,0.01,0.0,-0.06,0.06
23.848344802856445,0.02,0.0,-0.06,0.06
23.854307889938354,0.01,0.0,-0.06,0.06
23.8642098903656,0.0,0.01,-0.07,0.07
23.87442398071289,-0.01,0.0,-0.06,0.06
23.885597944259644,-0.02,-0.01,-0.07,0.07
23.894490957260132,-0.03,-0.02,-0.06,0.06
23.947978973388672,-0.04,-0.02,-0.07,0.08
23.948206901550293,-0.03,-0.01,-0.06,0.06
23.948380947113037,-0.02,-0.01,-0.06,0.06
23.948523998260498,-0.02,-0.01,-0.06,0.06
23.948664903640747,-0.02,-0.01,-0.06,0.06
23.95401906967163,-0.01,-0.01,-0.05,0.05
23.96420192718506,-0.01,0.0,-0.06,0.06
23.9737548828125,-0.01,-0.01,-0.06,0.06
23.9849591255188,0.0,-0.02,-0.06,0.06
23.99364399909973,0.01,-0.02,-0.07,0.07
24.048061847686768,0.02,-0.01,-0.06,0.06
24.048240900039673,0.02,0.0,-0.06,0.06
24.04838991165161,0.02,0.0,-0.06,0.06
24.048568964004517,0.02,0.0,-0.05,0.05
24.0487859249115,0.01,-0.01,-0.06,0.06
24.050760984420776,0.01,-0.01,-0.06,0.06
24.060587882995605,0.0,0.0,-0.06,0.06
24.07085394859314,-0.01,-0.01,-0.07,0.07
24.132254123687744,-0.02,0.0,-0.08,0.08
24.13248109817505,-0.03,-0.01,-0.07,0.07
24.132678031921387,-0.02,-0.01,-0.06,0.06
24.13286590576172,-0.03,-0.02,-0.06,0.06
24.13304090499878,-0.02,-0.02,-0.06,0.06
24.1331889629364,-0.02,-0.02,-0.06,0.06
24.140095949172974,-0.02,-0.01,-0.06,0.06
24.1499080657959,-0.02,-0.02,-0.06,0.06
24.1600399017334,-0.02,0.0,-0.05,0.05
24.16999101638794,-0.01,-0.01,-0.06,0.06
24.232260942459106,0.0,-0.01,-0.06,0.06
24.232407093048096,0.0,-0.01,-0.06,0.06
24.2326021194458,0.01,0.0,-0.06,0.06
24.23280692100525,0.02,0.0,-0.05,0.05
24.23302698135376,0.03,0.01,-0.06,0.06
24.233213901519775,0.02,0.0,-0.06,0.06
24.239558935165405,0.02,-0.01,-0.06,0.06
24.249323844909668,0.01,0.0,-0.07,0.07
24.25950002670288,0.01,0.0,-0.07,0.07
24.269442081451416,-0.01,-0.01,-0.06,0.06
24.280702114105225,-0.01,0.0,-0.06,0.06
24.331109046936035,-0.02,0.0,-0.07,0.07
24.331793785095215,-0.02,0.0,-0.05,0.05
24.331970930099487,-0.02,-0.01,-0.05,0.05
24.33213996887207,-0.03,-0.01,-0.05,0.05
24.332316875457764,-0.03,-0.01,-0.06,0.06
24.338911056518555,-0.03,-0.01,-0.06,0.06
24.348802089691162,-0.03,-0.02,-0.05,0.06
24.358881950378418,-0.02,-0.02,-0.06,0.06
24.368577003479004,-0.01,-0.02,-0.06,0.06
24.3802969455719,0.0,-0.01,-0.06,0.06
24.431055068969727,0.01,0.0,-0.05,0.05
24.43125295639038,0.02,-0.01,-0.05,0.05
24.431912899017334,0.02,0.0,-0.06,0.06
24.432086944580078,0.03,0.0,-0.06,0.06
24.432230949401855,0.03,0.0,-0.06,0.06
24.43829584121704,0.01,-0.01,-0.07,0.07
24.448680877685547,0.0,0.0,-0.07,0.07
24.458251953125,0.0,0.0,-0.06,0.06
24.47226095199585,-0.02,-0.01,-0.05,0.05
24.483441829681396,-0.02,-0.01,-0.05,0.05
24.491919994354248,-0.02,0.0,-0.06,0.06
24.549932956695557,-0.02,0.0,-0.05,0.05
24.550079822540283,-0.02,0.0,-0.05,0.05
24.550283908843994,-0.02,-0.01,-0.06,0.06
24.550453901290894,-0.02,-0.02,-0.06,0.06
24.550594806671143,-0.02,-0.02,-0.06,0.06
24.55128002166748,-0.01,-0.01,-0.06,0.06
24.56141710281372,0.0,-0.02,-0.06,0.06
24.571310997009277,0.02,-0.02,-0.06,0.06
24.63174796104431,0.02,-0.01,-0.06,0.06
24.63206696510315,0.02,-0.01,-0.06,0.06
24.63220977783203,0.02,-0.01,-0.06,0.06
24.632423877716064,0.02,0.0,-0.07,0.07
24.63261890411377,0.01,-0.01,-0.07,0.07
24.632821083068848,0.01,0.0,-0.06,0.06
24.640964031219482,-0.01,-0.01,-0.06,0.06
24.650879859924316,-0.01,-0.01,-0.05,0.05
24.660802841186523,-0.01,0.0,-0.06,0.06
24.670920848846436,-0.02,0.0,-0.06,0.06
24.682043075561523,-0.02,-0.01,-0.06,0.06
24.732821941375732,-0.03,-0.01,-0.05,0.05
24.73302412033081,-0.03,-0.01,-0.06,0.06
24.73317289352417,-0.03,-0.01,-0.06,0.06
24.73334789276123,-0.03,-0.01,-0.05,0.05
24.73356580734253,-0.02,-0.02,-0.06,0.06
24.740394115447998,-0.02,-0.02,-0.06,0.06
24.750133991241455,0.0,-0.01,-0.05,0.05
24.760429859161377,0.0,0.0,-0.06,0.06
24.770293951034546,0.01,0.0,-0.07,0.07
24.78141689300537,0.02,0.0,-0.05,0.05
24.831723928451538,0.02,0.0,-0.06,0.06
24.83190679550171,0.02,0.0,-0.07,0.07
24.83204984664917,0.02,0.0,-0.07,0.07
24.832226991653442,0.02,0.0,-0.06,0.06
24.832394123077393,0.01,0.0,-0.06,0.06
24.83976984024048,0.01,0.01,-0.06,0.06
24.84958505630493,-0.01,0.0,-0.06,0.06
24.85974097251892,-0.01,-0.01,-0.05,0.05
24.869446992874146,-0.02,-0.01,-0.06,0.06
24.880923986434937,-0.03,-0.02,-0.06,0.06
24.931864976882935,-0.03,-0.01,-0.05,0.05
24.932097911834717,-0.04,-0.02,-0.06,0.07
24.932275772094727,-0.04,-0.02,-0.07,0.08
24.9324951171875,-0.03,-0.01,-0.05,0.05
24.933154106140137,-0.02,-0.01,-0.04,0.04
24.939273834228516,-0.02,-0.01,-0.06,0.06
24.949147939682007,-0.01,-0.01,-0.05,0.05
24.95932912826538,0.0,-0.01,-0.06,0.06
24.968810081481934,0.0,0.0,-0.06,0.06
24.980432987213135,0.02,0.0,-0.06,0.06
25.033403873443604,0.02,-0.01,-0.06,0.06
25.033620834350586,0.03,-0.01,-0.07,0.07
25.033827781677246,0.03,0.0,-0.05,0.05
25.034003973007202,0.03,0.0,-0.07,0.07
25.03417992591858,0.02,0.0,-0.07,0.07
25.038522958755493,0.02,0.0,-0.06,0.06
25.048437118530273,0.01,0.0,-0.07,0.07
25.058650016784668,-0.01,-0.01,-0.06,0.06
25.068238973617554,-0.02,-0.02,-0.06,0.06
25.079608917236328,-0.03,-0.02,-0.06,0.06
25.132919788360596,-0.04,-0.01,-0.06,0.07
25.13310480117798,-0.04,-0.01,-0.05,0.06
25.13375496864319,-0.05,-0.01,-0.06,0.07
25.133927822113037,-0.05,-0.01,-0.05,0.07
25.13414192199707,-0.04,-0.01,-0.07,0.08
25.137903928756714,-0.03,0.0,-0.07,0.07
25.14784598350525,-0.01,0.0,-0.06,0.06
25.15819787979126,0.0,-0.01,-0.04,0.04
25.16763401031494,0.0,-0.01,-0.06,0.06
25.179040908813477,0.02,-0.01,-0.06,0.06
25.233319997787476,0.03,0.0,-0.06,0.06
25.233808994293213,0.03,0.0,-0.06,0.06
25.23401403427124,0.04,0.0,-0.05,0.06
25.234222888946533,0.04,-0.01,-0.06,0.07
25.23441982269287,0.03,0.0,-0.06,0.06
25.23732089996338,0.02,0.0,-0.07,0.07
25.247250080108643,0.01,0.0,-0.06,0.06
25.257172107696533,-0.01,0.0,-0.07,0.07
25.267559051513672,-0.03,-0.01,-0.06,0.06
25.27846908569336,-0.04,-0.02,-0.06,0.07
25.33302593231201,-0.04,0.0,-0.05,0.06
25.333257913589478,-0.05,-0.01,-0.06,0.07
25.333449840545654,-0.04,-0.02,-0.06,0.07
25.333616971969604,-0.04,-0.03,-0.06,0.07
25.33424997329712,-0.03,-0.02,-0.06,0.06
25.3366379737854,-0.02,-0.02,-0.06,0.06
25.346744060516357,-0.01,-0.01,-0.05,0.05
25.356595039367676,-0.01,-0.01,-0.06,0.06
25.366545915603638,0.0,-0.01,-0.06,0.06
25.37791109085083,0.02,-0.01,-0.06,0.06
25.432876110076904,0.02,-0.01,-0.06,0.06
25.433106899261475,0.02,0.0,-0.05,0.05
25.433302879333496,0.03,-0.01,-0.05,0.05
25.433470964431763,0.03,0.0,-0.05,0.05
25.4336359500885,0.02,0.0,-0.05,0.05
25.43610692024231,0.02,0.0,-0.05,0.05
25.446208953857422,0.01,0.01,-0.07,0.07
25.456058979034424,0.0,0.0,-0.06,0.06
25.46597194671631,-0.01,0.0,-0.07,0.07
25.47736692428589,-0.03,-0.01,-0.06,0.06
25.533309936523438,-0.04,-0.01,-0.07,0.08
25.533495903015137,-0.04,-0.01,-0.06,0.07
25.533639907836914,-0.04,-0.01,-0.06,0.07
25.53386092185974,-0.03,-0.02,-0.05,0.06
25.53400707244873,-0.03,-0.02,-0.05,0.06
25.535454988479614,-0.03,-0.03,-0.05,0.06
25.545615911483765,-0.03,-0.02,-0.06,0.06
25.555492877960205,-0.02,-0.02,-0.06,0.06
25.565436840057373,0.0,-0.02,-0.06,0.06
25.57673192024231,0.0,-0.01,-0.05,0.05
25.633627891540527,0.01,-0.01,-0.07,0.07
25.63383388519287,0.02,-0.01,-0.06,0.06
25.634013891220093,0.02,-0.01,-0.05,0.05
25.634212017059326,0.02,0.01,-0.06,0.06
25.634398937225342,0.03,0.0,-0.06,0.06
25.634910106658936,0.02,-0.01,-0.06,0.06
25.645227909088135,0.0,0.01,-0.07,0.07
25.654846906661987,0.01,-0.01,-0.06,0.06
25.665029048919678,0.0,-0.01,-0.06,0.06
25.676095962524414,-0.02,-0.01,-0.06,0.06
25.684648036956787,-0.02,-0.01,-0.06,0.06
25.733341932296753,-0.02,-0.01,-0.05,0.05
25.733549118041992,-0.03,-0.01,-0.06,0.06
25.73374080657959,-0.03,-0.02,-0.05,0.06
25.73388385772705,-0.03,-0.02,-0.05,0.06
25.734206914901733,-0.03,-0.01,-0.07,0.07
25.744422912597656,-0.02,-0.02,-0.05,0.05
25.754136085510254,-0.01,-0.01,-0.06,0.06
25.764255046844482,0.0,0.0,-0.06,0.06
25.77546787261963,0.0,-0.01,-0.05,0.05
25.784212112426758,0.01,0.0,-0.06,0.06
25.833301067352295,0.01,0.01,-0.05,0.05
25.833503007888794,0.02,-0.01,-0.05,0.05
25.833854913711548,0.02,-0.01,-0.06,0.06
25.834031105041504,0.02,-0.01,-0.07,0.07
25.834224939346313,0.01,-0.01,-0.06,0.06
25.843871116638184,0.01,0.0,-0.05,0.05
25.853538990020752,0.0,-0.01,-0.06,0.06
25.86366081237793,0.0,-0.01,-0.05,0.05
25.874727964401245,-0.02,-0.01,-0.05,0.05
25.883482933044434,-0.02,-0.01,-0.05,0.05
25.932872772216797,-0.03,-0.02,-0.05,0.06
25.933244943618774,-0.03,-0.01,-0.06,0.06
25.93342399597168,-0.03,-0.01,-0.07,0.07
25.93356704711914,-0.03,-0.01,-0.07,0.07
25.933763027191162,-0.01,-0.01,-0.05,0.05
25.94305396080017,-0.01,0.0,-0.06,0.06
25.95276403427124,-0.01,0.0,-0.06,0.06
25.963011980056763,0.0,-0.01,-0.07,0.07
25.974097967147827,0.01,0.0,-0.07,0.07
25.98290777206421,0.01,-0.01,-0.06,0.06
26.03352189064026,0.01,-0.01,-0.04,0.04
26.03373694419861,0.02,-0.01,-0.06,0.06
26.033907890319824,0.02,0.0,-0.06,0.06
26.03407597541809,0.02,-0.01,-0.06,0.06
26.034241914749146,0.01,-0.01,-0.06,0.06
26.042582988739014,0.0,-0.01,-0.06,0.06
26.052783012390137,0.01,-0.01,-0.06,0.06
26.06243395805359,-0.01,-0.01,-0.06,0.06
26.07334589958191,-0.03,-0.01,-0.06,0.06
26.082158088684082,-0.03,-0.01,-0.06,0.06
26.133619785308838,-0.04,-0.01,-0.05,0.06
26.13380479812622,-0.05,-0.01,-0.05,0.07
26.13400411605835,-0.03,-0.01,-0.06,0.06
26.13414692878723,-0.03,-0.01,-0.06,0.06
26.134310960769653,-0.02,-0.01,-0.06,0.06
26.141889095306396,0.0,0.0,-0.06,0.06
26.151845932006836,0.0,0.0,-0.07,0.07
26.16219711303711,0.01,0.0,-0.06,0.06
26.172832012176514,0.01,0.0,-0.06,0.06
26.181830883026123,0.02,-0.01,-0.05,0.05
26.23378610610962,0.02,-0.01,-0.05,0.05
26.234002113342285,0.03,-0.01,-0.06,0.06
26.234171867370605,0.02,-0.01,-0.06,0.06
26.23434090614319,0.02,0.0,-0.06,0.06
26.234528064727783,0.01,-0.01,-0.06,0.06
26.24134397506714,0.0,-0.01,-0.07,0.07
26.25122094154358,-0.01,-0.01,-0.06,0.06
26.26127600669861,-0.02,-0.01,-0.05,0.05
26.272202014923096,-0.03,-0.01,-0.05,0.05
26.28122591972351,-0.04,-0.02,-0.05,0.06
26.33422088623047,-0.05,-0.01,-0.06,0.07
26.334425926208496,-0.04,-0.01,-0.05,0.06
26.334569931030273,-0.04,-0.01,-0.05,0.06
26.33475685119629,-0.03,-0.01,-0.06,0.06
26.334951877593994,-0.01,-0.01,-0.05,0.05
26.340601921081543,0.0,-0.01,-0.05,0.05
26.35085892677307,0.0,-0.01,-0.07,0.07
26.3605740070343,0.0,-0.01,-0.06,0.06
26.371646881103516,0.01,-0.01,-0.07,0.07
26.38054394721985,0.02,-0.01,-0.07,0.07
26.434256076812744,0.03,-0.01,-0.06,0.06
26.43443202972412,0.03,0.0,-0.06,0.06
26.434598922729492,0.02,0.0,-0.06,0.06
26.43476390838623,0.01,0.0,-0.06,0.06
26.43496084213257,0.01,-0.01,-0.05,0.05
26.44008207321167,0.0,0.0,-0.05,0.05
26.45008087158203,-0.01,0.0,-0.06,0.06
26.460113048553467,-0.02,0.0,-0.05,0.05
26.5173499584198,-0.02,0.0,-0.06,0.06
26.51754903793335,-0.03,-0.01,-0.06,0.06
26.517749786376953,-0.02,-0.01,-0.05,0.05
26.51792597770691,-0.02,-0.01,-0.06,0.06
26.518121004104614,-0.03,-0.01,-0.07,0.07
26.5194730758667,-0.03,-0.01,-0.04,0.05
26.52971601486206,-0.02,-0.01,-0.05,0.05
26.539490938186646,-0.02,-0.01,-0.06,0.06
26.549506902694702,-0.01,-0.01,-0.06,0.06
26.559436798095703,0.0,-0.01,-0.05,0.05
26.618556022644043,0.0,-0.01,-0.06,0.06
26.618767976760864,0.01,-0.01,-0.05,0.05
26.619102954864502,0.02,-0.01,-0.05,0.05
26.619302988052368,0.02,0.0,-0.07,0.07
26.619478940963745,0.02,0.0,-0.06,0.06
26.61967396736145,0.02,0.01,-0.08,0.08
26.62908697128296,0.02,0.0,-0.06,0.06
26.63878107070923,0.0,0.0,-0.06,0.06
26.64897108078003,-0.01,0.0,-0.05,0.05
26.658812999725342,-0.02,-0.01,-0.05,0.05
26.67024803161621,-0.02,-0.01,-0.06,0.06
26.717780113220215,-0.02,-0.01,-0.06,0.06
26.71792697906494,-0.02,-0.01,-0.06,0.06
26.718105792999268,-0.02,-0.02,-0.06,0.06
26.718482971191406,-0.03,-0.01,-0.05,0.05
26.718660831451416,-0.03,-0.01,-0.06,0.06
26.728384017944336,-0.02,-0.01,-0.06,0.06
26.73815894126892,-0.01,-0.01,-0.06,0.06
26.748305797576904,-0.01,-0.01,-0.06,0.06
26.758227825164795,0.0,-0.01,-0.05,0.05
26.769614934921265,0.0,-0.01,-0.06,0.06
26.81741189956665,0.01,-0.01,-0.06,0.06
26.817627906799316,0.02,-0.01,-0.05,0.05
26.817950963974,0.02,0.0,-0.05,0.05
26.818120002746582,0.02,-0.01,-0.05,0.05
26.818295001983643,0.02,-0.01,-0.06,0.06
26.827838897705078,0.0,-0.01,-0.06,0.06
26.838196992874146,0.0,0.0,-0.06,0.06
26.8477840423584,0.0,-0.01,-0.06,0.06
26.857534885406494,-0.01,-0.01,-0.07,0.07
26.86912488937378,-0.02,-0.01,-0.06,0.06
26.918503999710083,-0.02,-0.01,-0.05,0.05
26.918677806854248,-0.03,-0.01,-0.05,0.05
26.918855905532837,-0.03,-0.01,-0.06,0.06
26.919023036956787,-0.02,-0.01,-0.06,0.06
26.919188022613525,-0.03,-0.01,-0.06,0.06
26.927278995513916,-0.02,-0.02,-0.06,0.06
26.93720293045044,-0.01,-0.01,-0.06,0.06
26.947124004364014,-0.01,-0.01,-0.05,0.05
26.957053899765015,0.0,-0.01,-0.06,0.06
26.968483924865723,0.01,-0.01,-0.05,0.05
27.017972946166992,0.02,-0.01,-0.06,0.06
27.018157958984375,0.02,-0.01,-0.05,0.05
27.018348932266235,0.03,-0.01,-0.04,0.05
27.01854705810547,0.03,0.0,-0.06,0.06
27.018712997436523,0.02,0.0,-0.06,0.06
27.02665090560913,0.01,-0.01,-0.07,0.07
27.036566972732544,0.0,-0.01,-0.07,0.07
27.04660701751709,-0.01,0.0,-0.06,0.06
27.056344032287598,0.0,0.0,-0.05,0.05
27.0679669380188,-0.01,-0.01,-0.06,0.06
27.118279933929443,-0.02,0.0,-0.05,0.05
27.118462085723877,-0.04,0.0,-0.05,0.06
27.118672847747803,-0.03,-0.01,-0.06,0.06
27.11884880065918,-0.03,-0.01,-0.05,0.05
27.11901593208313,-0.03,0.0,-0.05,0.05
27.125887870788574,-0.02,-0.01,-0.06,0.06
27.13593578338623,-0.02,-0.02,-0.05,0.05
27.145873069763184,0.0,-0.01,-0.07,0.07
27.155885934829712,0.0,-0.01,-0.07,0.07
27.16742992401123,0.01,-0.02,-0.05,0.05
27.218432903289795,0.01,-0.01,-0.06,0.06
27.218607902526855,0.03,-0.01,-0.06,0.06
27.218799114227295,0.03,-0.02,-0.05,0.06
27.21901798248291,0.02,-0.01,-0.07,0.07
27.219214916229248,0.02,0.0,-0.06,0.06
27.2252779006958,0.01,0.0,-0.05,0.05
27.235384941101074,0.0,-0.01,-0.06,0.06
27.245269775390625,0.0,0.0,-0.06,0.06
27.25545883178711,-0.02,0.0,-0.06,0.06
27.266594886779785,-0.03,-0.01,-0.06,0.06
27.318963050842285,-0.04,-0.01,-0.06,0.07
27.319143772125244,-0.02,-0.01,-0.06,0.06
27.31932497024536,-0.02,-0.01,-0.05,0.05
27.31949281692505,-0.03,-0.01,-0.05,0.05
27.31968879699707,-0.02,-0.01,-0.06,0.06
27.324759006500244,-0.02,-0.02,-0.06,0.06
27.334702014923096,-0.01,-0.02,-0.06,0.06
27.344607830047607,0.0,-0.02,-0.06,0.06
27.354628086090088,-0.01,-0.01,-0.06,0.06
27.365779876708984,0.01,-0.02,-0.06,0.06
27.419736862182617,0.01,-0.01,-0.04,0.04
27.419949054718018,0.03,-0.01,-0.05,0.05
27.420156002044678,0.03,0.0,-0.06,0.06
27.420352935791016,0.02,0.0,-0.07,0.07
27.420547008514404,0.01,0.0,-0.06,0.06
27.423978805541992,0.0,0.0,-0.06,0.06
27.434095859527588,-0.01,0.0,-0.07,0.07
27.44400405883789,-0.02,-0.01,-0.07,0.07
27.45397710800171,-0.02,-0.01,-0.05,0.05
27.465227127075195,-0.02,-0.01,-0.05,0.05
27.51998281478882,-0.03,-0.01,-0.05,0.05
27.520205974578857,-0.02,-0.01,-0.04,0.04
27.520389080047607,-0.02,-0.01,-0.06,0.06
27.520564079284668,-0.02,-0.01,-0.05,0.05
27.52073097229004,-0.02,-0.02,-0.05,0.05
27.523501873016357,-0.01,-0.02,-0.07,0.07
27.53350591659546,-0.01,-0.02,-0.07,0.07
27.54332399368286,0.0,-0.01,-0.05,0.05
27.553438901901245,0.01,-0.01,-0.06,0.06
27.56455707550049,0.01,0.0,-0.05,0.05
27.620497941970825,0.02,0.0,-0.05,0.05
27.620648860931396,0.02,0.0,-0.05,0.05
27.620853900909424,0.01,0.0,-0.08,0.08
27.62105703353882,0.01,-0.01,-0.07,0.07
27.62125301361084,0.0,-0.01,-0.06,0.06
27.62274694442749,0.0,-0.01,-0.06,0.06
27.632981777191162,-0.01,0.0,-0.07,0.07
27.642745971679688,0.0,-0.01,-0.06,0.06
27.652801036834717,-0.01,-0.01,-0.06,0.06
27.663928031921387,-0.02,-0.01,-0.05,0.05
27.672657012939453,-0.02,-0.02,-0.05,0.05
27.720111846923828,-0.02,-0.02,-0.06,0.06
27.720310926437378,-0.03,-0.02,-0.05,0.06
27.720500946044922,-0.02,-0.03,-0.05,0.06
27.720696926116943,-0.02,-0.02,-0.07,0.07
27.722175121307373,-0.01,-0.01,-0.06,0.06
27.73228096961975,-0.01,0.0,-0.06,0.06
27.742079973220825,-0.01,-0.01,-0.06,0.06
27.752205848693848,0.0,0.0,-0.06,0.06
27.763539791107178,0.01,0.0,-0.05,0.05
27.772092819213867,0.0,-0.01,-0.06,0.06
27.82013511657715,0.01,-0.01,-0.05,0.05
27.820344924926758,0.01,0.0,-0.06,0.06
27.820514917373657,0.01,-0.02,-0.06,0.06
27.820682048797607,0.01,-0.01,-0.06,0.06
27.821650981903076,0.01,0.0,-0.06,0.06
27.831725120544434,0.01,-0.01,-0.06,0.06
27.841508865356445,-0.01,0.0,-0.06,0.06
27.851643085479736,-0.02,-0.01,-0.06,0.06
27.86268901824951,-0.03,-0.01,-0.05,0.05
27.871459007263184,-0.03,-0.01,-0.06,0.06
27.920286893844604,-0.03,-0.01,-0.06,0.06
27.920471906661987,-0.03,-0.02,-0.06,0.06
27.920682907104492,-0.02,-0.01,-0.06,0.06
27.92085599899292,-0.02,-0.02,-0.06,0.06
27.92122793197632,-0.02,-0.01,-0.07,0.07
27.93118381500244,-0.01,-0.01,-0.07,0.07
27.941258907318115,0.0,-0.02,-0.06,0.06
27.95122790336609,0.0,-0.01,-0.05,0.05
27.96208095550537,0.01,-0.01,-0.06,0.06
27.97087597846985,0.0,-0.01,-0.05,0.05
28.020567893981934,0.01,-0.01,-0.07,0.07
28.02077293395996,0.02,-0.01,-0.06,0.06
28.020951986312866,0.02,-0.01,-0.05,0.05
28.021152019500732,0.01,-0.01,-0.06,0.06
28.021294116973877,0.01,-0.01,-0.06,0.06
28.02669382095337,0.0,-0.01,-0.06,0.06
28.036663055419922,0.0,0.0,-0.06,0.06
28.046627044677734,-0.01,-0.01,-0.06,0.06
28.103501796722412,-0.02,-0.01,-0.05,0.05
28.103713989257812,-0.03,-0.01,-0.07,0.07
28.10391592979431,-0.03,0.0,-0.06,0.06
28.104132890701294,-0.02,-0.01,-0.05,0.05
28.10430908203125,-0.02,-0.01,-0.06,0.06
28.106148958206177,-0.01,-0.01,-0.05,0.05
28.116480827331543,0.0,-0.01,-0.04,0.04
28.126055002212524,0.0,-0.01,-0.05,0.05
28.13609290122986,0.0,-0.02,-0.06,0.06
28.145955085754395,0.0,-0.01,-0.06,0.06
28.157350063323975,0.01,-0.01,-0.06,0.06
28.203638076782227,0.01,-0.01,-0.06,0.06
28.203868865966797,0.01,-0.01,-0.05,0.05
28.20408797264099,0.01,0.0,-0.06,0.06
28.204258918762207,0.01,-0.01,-0.06,0.06
28.205525875091553,0.01,0.0,-0.06,0.06
28.215864896774292,0.01,-0.01,-0.06,0.06
28.22534489631653,-0.01,-0.01,-0.05,0.05
28.23552894592285,-0.01,0.0,-0.05,0.05
28.245171070098877,-0.01,0.0,-0.06,0.06
28.256649017333984,-0.01,-0.01,-0.06,0.06
28.304226875305176,-0.02,-0.01,-0.05,0.05
28.30441904067993,-0.02,-0.01,-0.06,0.06
28.304604053497314,-0.01,-0.01,-0.06,0.06
28.304751873016357,-0.01,-0.01,-0.06,0.06
28.305130004882812,-0.02,-0.01,-0.07,0.07
28.315112113952637,-0.01,-0.01,-0.06,0.06
28.32523202896118,0.0,-0.02,-0.07,0.07
28.334869861602783,0.0,-0.02,-0.05,0.05
28.344658851623535,0.0,-0.02,-0.06,0.06
28.356221914291382,0.0,-0.01,-0.05,0.05
28.403888940811157,0.01,0.0,-0.06,0.06
28.404042959213257,0.01,0.0,-0.06,0.06
28.404397010803223,0.01,0.0,-0.06,0.06
28.404582977294922,0.01,0.0,-0.07,0.07
28.404822826385498,0.0,-0.01,-0.06,0.06
28.414463996887207,0.0,0.0,-0.05,0.05
28.424317836761475,-0.01,-0.01,-0.06,0.06
28.434470891952515,-0.01,-0.02,-0.06,0.06
28.4441978931427,-0.01,-0.01,-0.05,0.05
28.455628871917725,-0.01,-0.01,-0.06,0.06
28.503922939300537,-0.01,-0.01,-0.06,0.06
28.50413703918457,-0.01,-0.01,-0.05,0.05
28.50428795814514,-0.01,-0.01,-0.05,0.05
28.50446891784668,-0.01,-0.01,-0.06,0.06
28.507503032684326,-0.02,-0.01,-0.06,0.06
28.517805099487305,-0.02,-0.01,-0.07,0.07
28.527400970458984,-0.01,-0.02,-0.06,0.06
28.537492990493774,0.0,-0.02,-0.07,0.07
28.547425985336304,0.0,-0.01,-0.06,0.06
28.558762073516846,0.01,-0.01,-0.05,0.05
28.604432106018066,0.01,0.0,-0.06,0.06
28.604641914367676,0.01,-0.01,-0.07,0.07
28.60484290122986,0.01,0.0,-0.05,0.05
28.605061054229736,0.0,-0.01,-0.07,0.07
28.60685682296753,0.0,-0.01,-0.07,0.07
28.61703896522522,0.0,-0.01,-0.06,0.06
28.626765966415405,-0.01,-0.01,-0.07,0.07
28.63685703277588,-0.01,0.0,-0.06,0.06
28.646739959716797,-0.02,0.0,-0.05,0.05
28.658273935317993,-0.01,0.0,-0.06,0.06
28.70435380935669,-0.01,-0.01,-0.05,0.05
28.70453977584839,-0.01,-0.01,-0.04,0.04
28.704759120941162,-0.02,-0.02,-0.06,0.06
28.704977989196777,0.0,0.0,-0.05,0.05
28.706233024597168,0.0,-0.01,-0.07,0.07
28.716389894485474,0.0,-0.01,-0.07,0.07
28.726277828216553,0.0,-0.01,-0.05,0.05
28.736578941345215,0.01,-0.02,-0.06,0.06
28.746026039123535,0.01,-0.02,-0.07,0.07
28.757774829864502,0.02,-0.01,-0.05,0.05
28.805418968200684,0.01,-0.01,-0.05,0.05
28.80561399459839,0.01,-0.01,-0.06,0.06
28.805924892425537,0.0,-0.01,-0.06,0.06
28.80611491203308,-0.01,-0.02,-0.06,0.06
28.80628490447998,-0.01,-0.01,-0.06,0.06
28.81582999229431,-0.02,0.0,-0.05,0.05
28.82561206817627,-0.02,0.0,-0.05,0.05
28.8360538482666,-0.01,-0.01,-0.06,0.06
28.84538507461548,-0.02,-0.01,-0.06,0.06
28.857163906097412,-0.01,0.0,-0.06,0.06
28.905527114868164,-0.02,-0.02,-0.04,0.04
28.905858993530273,-0.01,-0.01,-0.04,0.04
28.90603494644165,-0.01,-0.01,-0.05,0.05
28.90625286102295,0.0,-0.02,-0.06,0.06
28.906468868255615,0.01,-0.01,-0.07,0.07
28.915255069732666,0.01,-0.01,-0.06,0.06
28.925062894821167,0.01,-0.01,-0.06,0.06
28.935149908065796,0.02,-0.02,-0.05,0.05
28.944858074188232,0.01,-0.01,-0.05,0.05
28.9564049243927,0.01,0.0,-0.07,0.07
29.00594186782837,0.01,-0.01,-0.06,0.06
29.006117820739746,0.0,-0.01,-0.06,0.06
29.006260871887207,0.0,-0.01,-0.06,0.06
29.006484031677246,-0.02,0.0,-0.07,0.07
29.006683826446533,-0.02,-0.01,-0.06,0.06
29.014750957489014,-0.02,0.0,-0.07,0.07
29.024552822113037,-0.01,0.0,-0.06,0.06
29.034512042999268,-0.01,-0.01,-0.05,0.05
29.04418706893921,-0.01,-0.01,-0.05,0.05
29.0559298992157,-0.02,-0.01,-0.06,0.06
29.10646891593933,0.0,-0.01,-0.05,0.05
29.10667610168457,0.0,-0.02,-0.07,0.07
29.106822967529297,0.0,-0.02,-0.07,0.07
29.107019901275635,0.01,-0.02,-0.05,0.05
29.107215881347656,0.01,-0.01,-0.07,0.07
29.113709926605225,0.01,-0.01,-0.07,0.07
29.123915910720825,0.02,0.0,-0.06,0.06
29.133860111236572,0.0,-0.01,-0.06,0.06
29.14381194114685,0.0,-0.01,-0.07,0.07
29.155394077301025,0.01,-0.01,-0.06,0.06
29.206768035888672,0.0,0.0,-0.07,0.07
29.20697593688965,-0.01,0.0,-0.06,0.06
29.207165002822876,0.0,-0.01,-0.06,0.06
29.207359790802002,-0.01,-0.01,-0.07,0.07
29.207554817199707,-0.01,0.0,-0.06,0.06
29.213257789611816,-0.02,-0.01,-0.05,0.05
29.223378896713257,-0.01,0.0,-0.07,0.07
29.233224868774414,-0.01,-0.01,-0.05,0.05
29.243174076080322,-0.02,-0.01,-0.05,0.05
29.254450798034668,-0.02,-0.02,-0.06,0.06
29.306467056274414,-0.01,-0.02,-0.05,0.05
29.30669403076172,0.0,-0.01,-0.06,0.06
29.306861877441406,0.01,-0.01,-0.06,0.06
29.30700397491455,0.01,-0.01,-0.06,0.06
29.30719804763794,0.02,-0.01,-0.07,0.07
29.312619924545288,0.01,0.0,-0.07,0.07
29.32274103164673,0.0,-0.01,-0.07,0.07
29.332672119140625,0.01,-0.01,-0.06,0.06
29.342612981796265,0.0,-0.01,-0.06,0.06
29.353792905807495,0.0,-0.01,-0.06,0.06
29.407135009765625,0.0,-0.01,-0.05,0.05
29.407349109649658,0.0,0.0,-0.06,0.06
29.407517910003662,0.0,-0.01,-0.06,0.06
29.407683849334717,-0.01,-0.01,-0.06,0.06
29.40785789489746,-0.01,-0.01,-0.07,0.07
29.411926984786987,-0.02,-0.01,-0.07,0.07
29.422163009643555,-0.03,-0.02,-0.07,0.07
29.431906938552856,-0.02,-0.02,-0.06,0.06
29.442115783691406,-0.02,-0.01,-0.05,0.05
29.453205108642578,-0.01,-0.01,-0.06,0.06
29.507341861724854,0.0,-0.01,-0.06,0.06
29.50753688812256,0.0,-0.01,-0.05,0.05
29.507739067077637,0.01,-0.01,-0.07,0.07
29.507906913757324,0.02,-0.01,-0.07,0.07
29.50810194015503,0.01,-0.01,-0.06,0.06
29.511470794677734,0.0,-0.01,-0.05,0.05
29.521574020385742,0.01,-0.01,-0.08,0.08
29.53145980834961,0.02,-0.01,-0.06,0.06
29.54143500328064,0.01,-0.01,-0.05,0.05
29.55257797241211,0.0,0.0,-0.06,0.06
29.561227798461914,0.0,-0.01,-0.06,0.06
29.607240915298462,0.0,-0.01,-0.05,0.05
29.607451915740967,-0.01,-0.01,-0.06,0.06
29.607676029205322,-0.02,-0.02,-0.07,0.07
